"Time (s)","Linear Acceleration x (m/s^2)","Linear Acceleration y (m/s^2)","Linear Acceleration z (m/s^2)","Absolute acceleration (m/s^2)"
1.193541661E-2,6.957738730E0,-7.556906426E-1,-5.589001440E0,8.956457652E0
2.194341668E-2,3.250616870E0,-4.478359079E-1,8.217492691E-1,3.382652642E0
3.195241664E-2,-6.497227812E0,1.720875328E0,3.070528767E0,7.389420008E0
4.196041659E-2,-4.237858422E0,4.875004368E0,4.290511429E-2,6.459640272E0
5.196841666E-2,-3.326937945E0,3.505844910E0,2.064285519E0,5.255543675E0
6.197641662E-2,5.705169243E-1,1.571926864E0,2.100039488E0,2.684512894E0
7.198541670E-2,-1.839232620E0,2.394240097E0,7.454799423E-1,3.109807489E0
8.199250000E-2,-3.793169485E0,3.375494100E0,1.128539810E0,5.201509134E0
9.200049995E-2,-3.276105468E0,4.468629313E0,3.211705696E0,6.404417885E0
1.020095000E-1,-3.094853185E0,5.440924796E0,3.823465956E0,7.334894055E0
1.120175000E-1,-4.206336082E0,5.725486563E0,3.537025187E0,7.936309394E0
1.220254999E-1,-5.138338988E0,4.832074111E0,3.373668892E0,7.818766499E0
1.320345000E-1,-3.573358323E0,4.313824278E0,3.596094929E0,6.656565807E0
1.420425000E-1,-2.717314257E0,5.005242911E0,1.283336659E0,5.838082421E0
1.520504999E-1,-3.664669028E0,3.145337167E0,-2.267233311E0,5.335099986E0
1.620585000E-1,-3.050723663E0,-3.487425596E-1,-4.241917267E0,5.236639986E0
1.720675000E-1,-2.627230299E0,-4.274180156E0,-5.738816460E0,7.622661570E0
1.820755000E-1,-3.759993553E-1,-4.441360238E0,-3.857388285E0,5.894616244E0
1.920835000E-1,6.522253311E-1,-4.047083656E0,3.053024250E-1,4.110656100E0
2.020924999E-1,4.235687935E-1,-1.421320131E0,3.036465228E0,3.379302075E0
2.121005000E-1,-5.912549517E-1,-1.646497575E0,3.983412447E0,4.350644942E0
2.221085000E-1,2.835613078E0,-1.236822351E0,3.399784019E0,4.596625113E0
2.321174999E-1,4.393492884E0,-5.027383393E-1,2.871655023E0,5.272753373E0
2.421255000E-1,8.298453823E0,-4.918671960E-1,1.375000827E0,8.425965611E0
2.521334999E-1,7.687127427E0,-4.144292446E0,-1.995783341E-1,8.735383190E0
2.621415000E-1,3.569024952E0,-7.423187621E0,-2.957155641E0,8.751366924E0
2.721505000E-1,-2.163328581E0,-7.768911847E0,-5.108906443E0,9.546565188E0
2.821584999E-1,-2.851465464E0,-5.943286575E0,-4.544596338E0,8.006676369E0
2.921665000E-1,-2.671594001E0,-4.367819806E0,-2.782912123E0,5.827509267E0
3.021755000E-1,1.411425472E0,-4.713313068E0,-2.913350641E0,5.717958893E0
3.121834999E-1,1.323131931E0,-6.982426844E0,-2.522753127E0,7.541170073E0
3.221915000E-1,9.994153087E-1,-7.240758585E0,-1.902037271E0,7.552824745E0
3.321994999E-1,1.253158156E0,-5.450485579E0,-5.264154696E-1,5.617411473E0
3.422085000E-1,-1.022826098E0,-1.998233909E0,1.295376076E0,2.591739022E0
3.522165000E-1,-2.081319627E0,2.460024197E0,1.234679931E0,3.450803526E0
3.622244999E-1,-6.482135564E0,4.004330569E0,4.370306335E0,8.783639464E0
3.722335000E-1,-4.857457751E0,4.411724210E0,4.206738955E0,7.794540329E0
3.822415000E-1,-3.907125871E0,5.072136812E0,-5.486331350E-1,6.425978737E0
3.922495000E-1,-5.566163970E0,4.083702428E0,4.597095564E-1,6.918825026E0
4.022585000E-1,-1.001376026E1,6.973401666E0,2.680999247E0,1.249365769E1
4.122664999E-1,-1.223052626E1,8.953381737E0,2.643302248E0,1.538622318E1
4.222745000E-1,-1.035454418E1,6.706656951E0,1.397283397E0,1.241564471E1
4.322825000E-1,-6.231627397E0,5.267144963E0,-1.117455536E-1,8.160176661E0
4.422914999E-1,-4.135126351E0,4.259686663E0,2.614087220E0,6.486728944E0
4.522995000E-1,-3.678491553E0,3.173590329E0,4.300406672E0,6.488179500E0
4.623075000E-1,-3.582861803E0,2.557541136E0,4.940437635E0,6.617086926E0
4.723164999E-1,-3.406811495E0,1.357231724E0,5.481778708E0,6.595327157E0
4.823245000E-1,5.612362967E-1,-2.437110713E0,5.145561469E0,5.721127305E0
4.923324999E-1,-7.572585004E-1,-2.359631597E0,2.609032010E0,3.598381544E0
5.023405000E-1,2.917058360E0,-4.605214423E-1,-8.517779374E-1,3.073570420E0
5.123495000E-1,6.262353346E0,-2.475197722E0,3.384485364E-2,6.733856151E0
5.223574999E-1,4.032539876E0,-3.231998166E0,5.012797514E-1,5.192154792E0
5.323655000E-1,2.866020938E0,-2.337023338E0,5.802683258E-1,3.743322779E0
5.423745000E-1,2.275135531E0,-2.017811556E0,1.263319301E0,3.292989647E0
5.523825000E-1,4.582944571E-1,5.034452677E-3,8.599769032E-1,9.744841862E-1
5.623905000E-1,4.250352935E-2,-2.437382609E-1,2.254218578E-1,3.347086850E-1
5.723994999E-1,3.195635209E0,-1.268229500E0,-1.502886450E-1,3.441377214E0
5.824075000E-1,4.528555087E0,-1.586709795E0,-7.091294105E-1,4.850600341E0
5.924155000E-1,3.220766542E0,-1.687583621E0,-2.303764522E0,4.304486794E0
6.024234999E-1,2.656453221E0,-1.852875636E0,-1.880031860E0,3.744918108E0
6.124325000E-1,2.168407619E0,-1.341901494E0,-6.606546772E-1,2.634227747E0
6.224405000E-1,1.549873067E0,-6.852194148E-1,-2.099327298E-1,1.707543242E0
6.324485000E-1,1.120854303E0,-1.467149438E0,-3.031138853E-1,1.871021077E0
6.424575000E-1,1.762759957E0,-2.358379124E0,-1.241479658E0,3.195394576E0
6.524654999E-1,2.871727528E0,-7.980607367E-1,-6.339282238E-1,3.047225776E0
6.624735000E-1,1.704402990E0,7.031996030E-1,1.071124538E0,2.132319631E0
6.724825000E-1,-2.423512867E0,2.926315087E-1,7.707823062E-1,2.559912729E0
6.824904999E-1,-4.299248047E0,1.626215338E0,7.126177132E-1,4.651444302E0
6.924985000E-1,-4.833631809E0,4.511485310E0,-2.459970037E-1,6.616495349E0
7.025064999E-1,-6.916708817E0,4.768099725E0,2.941079307E0,8.900875425E0
7.125155000E-1,-6.439100057E0,2.386024759E0,6.532535055E0,9.477823481E0
7.225235000E-1,-2.932875663E0,-4.338328205E0,1.611874457E0,5.479141405E0
7.325314999E-1,1.065549072E0,-6.941173568E0,-6.000743655E0,9.237110465E0
7.425405000E-1,1.231256240E0,-4.332705522E0,-6.909498031E0,8.247999279E0
7.525485000E-1,1.105640141E0,-1.132792198E0,-5.108513510E0,5.348136925E0
7.625564999E-1,-1.317641981E0,6.826489788E-1,-3.259408159E0,3.581330976E0
7.725655000E-1,-2.686710223E0,8.735880518E-1,3.606627665E-1,2.848095072E0
7.825734999E-1,-2.395183546E0,-3.148404032E-1,2.184251965E0,3.256836708E0
7.925815000E-1,6.567991693E-1,-1.994648981E0,8.359676510E-1,2.260276890E0
8.025895000E-1,1.556169349E0,-1.562455544E0,-1.515411186E-1,2.210406090E0
8.125984999E-1,2.308437178E0,5.895928806E-1,-1.077399770E0,2.614821645E0
8.226065000E-1,1.410129583E0,8.163824022E-1,1.456824424E0,2.185699676E0
8.326145000E-1,-1.439617677E0,4.439223665E-1,3.367340743E0,3.688976796E0
8.426234999E-1,4.736816244E-1,-8.929534453E-1,3.469252449E0,3.613509747E0
8.526315000E-1,9.705784491E-1,-1.117749066E0,3.022777188E0,3.365793730E0
8.626394999E-1,1.625162985E0,-3.277298300E0,-3.680372383E-1,3.676586771E0
8.726475000E-1,2.353732342E0,-3.497592734E0,-2.672558207E0,4.991570719E0
8.826565000E-1,1.547693956E0,-1.670109801E0,-4.406816642E0,4.960308080E0
8.926644999E-1,3.447212832E-1,-3.526338816E-2,-5.198113904E0,5.209651085E0
9.026725000E-1,4.982410996E-1,7.672383088E-1,-5.325148172E0,5.403156658E0
9.126815000E-1,2.382328150E-1,1.460471333E0,-4.751778392E0,4.976859378E0
9.226894999E-1,-1.145805323E0,3.083493506E0,-3.023360156E0,4.467830421E0
9.326975000E-1,-1.531910421E0,3.498131847E0,2.826675609E-2,3.818962551E0
9.427064999E-1,-1.389383516E0,3.024105676E0,3.598534387E0,4.901535620E0
9.527145000E-1,-7.487888816E-1,2.749201171E0,2.796135017E0,3.992137635E0
9.627225000E-1,2.223470995E-1,6.836891985E-1,3.804584420E0,3.871915774E0
9.727304999E-1,1.451559591E-1,-4.421110745E0,5.681490358E0,7.200459927E0
9.827395000E-1,-1.788473234E0,-6.605692493E0,4.482178773E0,8.180692903E0
9.927475000E-1,-3.491337675E0,-5.427089700E0,2.619024024E0,6.964339754E0
1.002755500E0,-1.962249267E0,-3.277946756E0,-5.272807114E-1,3.856602400E0
1.012764500E0,-5.053295329E-2,-1.657128398E0,-2.187792893E0,2.745007441E0
1.022772500E0,-5.559811847E-1,-1.075407624E0,-1.891176653E0,2.245476735E0
1.032780500E0,-1.663123402E0,-1.787501426E0,-1.771391909E0,3.016449916E0
1.042789500E0,-9.134996109E-1,-2.047037694E0,-1.593642254E0,2.750370974E0
1.052797500E0,4.249644508E-1,-8.193884557E-1,-1.855882128E-1,9.415068829E-1
1.062805500E0,1.372697317E0,-1.704726487E-1,1.933550255E0,2.377388365E0
1.072813500E0,1.433317740E-1,6.383773702E-1,1.697620951E0,1.819336845E0
1.082822542E0,-1.265009000E0,2.137136271E0,8.243604163E-1,2.616709634E0
1.092830542E0,-7.900816262E-1,2.411080078E0,-9.453860128E-1,2.707635654E0
1.102838542E0,2.584597957E-1,2.728263461E0,-2.178975584E0,3.501165174E0
1.112847542E0,5.263148975E-1,3.121882231E0,-2.207095867E0,3.859330020E0
1.122855542E0,2.880043146E-1,2.960107901E0,-1.276076317E0,3.236287385E0
1.132863542E0,8.933583650E-1,4.027456892E0,-1.332826030E-1,4.127500749E0
1.142872542E0,3.315566426E-1,4.201427929E0,-4.579773188E-1,4.239300612E0
1.152880542E0,-7.686604978E-1,3.374238703E0,-2.189489901E-1,3.467602118E0
1.162888542E0,-1.400536349E0,2.760350057E0,7.039135480E-1,3.174354861E0
1.172896542E0,-1.543284279E0,1.428045014E0,3.955853350E-1,2.139515525E0
1.182905542E0,-5.385686881E-1,7.643234718E-1,-4.366523771E-1,1.031945686E0
1.192913542E0,-2.405504320E-1,1.204253944E0,-1.107298923E0,1.653542553E0
1.202921542E0,1.833574270E-1,1.858239287E0,-1.094726093E0,2.164508816E0
1.212930542E0,1.347321278E0,5.810640734E0,1.417450590E0,6.130904219E0
1.222938542E0,1.768994258E0,4.385413494E0,8.373167498E-1,4.802321473E0
1.232946542E0,9.249236816E-1,1.843382682E0,-8.389185946E-1,2.226505768E0
1.242954542E0,-2.793899626E0,1.012072923E0,-2.288044867E0,3.750375453E0
1.252963542E0,-4.361050192E0,-1.069213083E0,-1.504054724E0,4.735415083E0
1.262971542E0,-2.727136118E0,6.644898659E-1,-4.973303957E-1,2.850641280E0
1.272979542E0,-4.373233451E-1,3.034648790E0,-3.148303168E-1,3.082119906E0
1.282988542E0,1.208886035E0,4.917547540E0,-1.226295316E0,5.210324314E0
1.292996542E0,1.580760692E0,4.446936142E0,-1.981559550E0,5.118654479E0
1.303004542E0,1.495668940E0,6.972295958E-1,-2.083920615E0,2.658172270E0
1.313013542E0,4.886235993E-1,-1.746760951E0,-2.008893968E0,2.706581205E0
1.323021542E0,-8.157545574E-1,-2.128711018E0,-1.497213335E0,2.727363905E0
1.333029542E0,-1.481668366E0,-2.619690022E0,-8.250351119E-1,3.120705032E0
1.343037542E0,-2.202209642E0,-2.263634934E0,-2.025662613E-1,3.164617435E0
1.353046542E0,-1.884000073E0,-1.767513889E-1,8.114765882E-2,1.894012215E0
1.363054542E0,-6.825465064E-1,2.117054009E0,1.034612039E0,2.453203921E0
1.373062542E0,-6.956844690E-1,2.807241803E0,1.974753391E0,3.502032892E0
1.383071542E0,3.107844821E-1,1.478834513E0,1.898985025E0,2.426866835E0
1.393079542E0,-5.259305893E-1,-5.341033888E-1,1.377110795E0,1.567897814E0
1.403087542E0,-9.447507128E-1,-2.681419662E0,-9.742241880E-1,3.005275043E0
1.413096542E0,1.206549561E-1,-3.810906429E0,-4.354700701E-1,3.837603368E0
1.423104542E0,8.931749086E-1,-4.605254769E0,-4.175319819E-1,4.709614194E0
1.433112542E0,1.534661974E0,-4.460101148E0,-7.021316090E-1,4.768718741E0
1.443120542E0,1.706987313E0,-3.955995730E0,7.820650935E-2,4.309271883E0
1.453129542E0,1.273075088E0,-2.503200622E0,3.842497766E-1,2.834498443E0
1.463137542E0,4.718708879E-1,-7.450609893E-1,7.258242345E-1,1.142190366E0
1.473145542E0,6.732334998E-1,1.745150628E0,3.301887596E-1,1.899425881E0
1.483154542E0,1.562697034E0,3.364152256E0,7.218666928E-1,3.778972605E0
1.493162542E0,1.120507490E0,3.247831256E0,8.556275980E-1,3.540627556E0
1.503170542E0,-1.133692669E0,3.487346073E0,9.487447996E-1,3.787737900E0
1.513179542E0,-2.868475307E0,4.467007880E0,8.072829652E-1,5.369731443E0
1.523187542E0,9.805774802E-1,4.573107362E-3,-3.867886376E-1,1.054115059E0
1.533195542E0,1.425824533E0,1.230317908E0,-1.221857572E-1,1.887216764E0
1.543203542E0,1.430414013E0,-1.975481808E-1,2.101183788E0,2.549526004E0
1.553212542E0,6.568802994E-1,-2.447057412E0,1.977454366E0,3.214017342E0
1.563220542E0,4.507451901E-1,-2.529116067E0,1.655547603E0,3.056212881E0
1.573228542E0,-1.820323017E-1,-5.107762728E0,2.784599337E0,5.820340996E0
1.583237542E0,-1.368946036E0,-7.074225206E0,2.061426523E0,7.494541668E0
1.593245542E0,-1.491299900E0,-5.619114600E0,1.043202914E0,5.906496136E0
1.603253542E0,-6.326900759E-1,-2.051423691E0,-3.099515462E-1,2.169033391E0
1.613261542E0,6.271045232E-1,8.753001165E-1,-1.025455737E0,1.486933034E0
1.623270542E0,5.858000842E-1,6.916431659E-1,-2.214215437E0,2.392547180E0
1.633278542E0,9.173857436E-1,-1.996894312E-1,-3.318380252E0,3.448640307E0
1.643286542E0,1.446422812E0,-4.960690051E-1,-2.583892198E0,3.002452714E0
1.653295542E0,1.240891428E0,-7.265814489E-1,-2.021758866E0,2.480975826E0
1.663303542E0,1.826505278E0,-7.549392754E-1,-2.150763792E0,2.920931312E0
1.673311542E0,2.195159069E0,-1.847974500E0,-1.581853098E0,3.276582414E0
1.683320542E0,1.891166420E0,-3.416580731E0,4.376208222E-1,3.929509677E0
1.693328542E0,1.801163446E0,-4.521119767E0,9.344154668E-1,4.955587349E0
1.703336542E0,2.302602534E0,-3.474091020E0,-4.423330933E-2,4.168122291E0
1.713344542E0,2.223245000E0,-1.980947785E0,-1.035168840E0,3.152546111E0
1.723353542E0,1.164065154E0,-9.455351168E-1,-1.049088575E0,1.830210692E0
1.733361542E0,8.828246060E-1,8.387596965E-2,-4.026883864E-1,9.739468157E-1
1.743369542E0,8.113406405E-1,-5.457422715E-1,-1.468767947E0,1.764479397E0
1.753378542E0,2.469252858E-1,-1.266268929E0,-8.660053825E-1,1.553825736E0
1.763386542E0,4.529229856E-1,-7.504959762E-2,1.376325953E0,1.450877252E0
1.773394542E0,1.582189313E-1,2.782526207E-1,1.027381810E0,1.076090672E0
1.783402542E0,-9.588761240E-2,9.282706279E-1,5.267288804E-1,1.071598855E0
1.793411542E0,-3.755453190E-1,5.576501262E-1,8.493300006E-2,6.776588850E-1
1.803419542E0,-1.106562173E-1,1.044295174E0,-3.275712535E-2,1.050652292E0
1.813427542E0,-2.566696706E-1,2.277741927E0,1.422605641E-1,2.296568238E0
1.823436542E0,-2.803269204E-1,3.232194048E0,9.561513215E-3,3.244341685E0
1.833444542E0,-6.289966822E-2,2.652108740E0,-2.392635329E-1,2.663622378E0
1.843452542E0,-4.538240415E-1,5.554112273E-1,-4.973781967E-1,8.728247033E-1
1.853461542E0,1.011726183E-1,-1.843273339E0,-7.192357381E-1,1.981209869E0
1.863469542E0,8.895828179E-1,-2.692971421E0,-1.153525840E0,3.061711046E0
1.873477542E0,1.105037220E0,-1.668638057E0,-1.654364419E0,2.596609684E0
1.883485542E0,7.587683246E-1,-5.639961094E-1,-1.457582370E0,1.737344913E0
1.893494542E0,9.277587041E-1,3.091381985E-1,-2.160307763E0,2.371335546E0
1.903502542E0,3.739452285E-1,1.464484861E0,-1.974449190E0,2.486564004E0
1.913510542E0,-4.657336503E-2,5.303716958E-2,-1.090651826E0,1.092933404E0
1.923519542E0,2.832984754E-1,-1.715066704E0,-5.768523093E-1,1.831521338E0
1.933527542E0,6.732045561E-1,-1.398952777E0,-6.143060645E-1,1.669624265E0
1.943535542E0,4.626509982E-1,-6.806211644E-1,-9.415642726E-1,1.250533644E0
1.953544542E0,1.206251645E0,-1.757773013E0,-9.295482445E-1,2.325697516E0
1.963552542E0,1.750628592E0,-1.170930077E0,-1.511348541E0,2.592287045E0
1.973560542E0,1.428860700E0,-1.313789835E0,-1.299248979E0,2.335751387E0
1.983568542E0,1.251171710E0,-1.795057783E0,-1.212738254E0,2.501678869E0
1.993577542E0,1.174906769E0,-1.877974809E0,-9.871526742E-1,2.425214568E0
2.003585542E0,8.050858739E-1,-2.310317350E0,-2.727410352E-1,2.461730528E0
2.013593542E0,8.776238000E-1,-1.993967780E0,3.232498688E-1,2.202412659E0
2.023602542E0,6.626962325E-1,-1.551203163E0,1.451553835E-1,1.693064569E0
2.033610542E0,6.987715065E-2,-1.531457700E0,1.364290080E-1,1.539109605E0
2.043618542E0,-2.240272969E-2,-1.722983249E0,1.196562882E-1,1.727278433E0
2.053626542E0,1.597298518E-1,-1.144607082E0,4.004319094E-1,1.223104538E0
2.063635542E0,3.002311349E-1,-9.058021170E-1,7.861248153E-1,1.236369053E0
2.073643542E0,3.992011070E-1,-6.550559682E-1,7.818499160E-1,1.095330606E0
2.083652042E0,6.327179964E-1,4.930956960E-3,6.611090058E-1,9.151073679E-1
2.093661042E0,1.333912589E0,7.923386514E-1,2.285793543E-1,1.568238456E0
2.103669042E0,1.791824711E0,1.732876153E0,-3.116261888E-1,2.512092044E0
2.113677042E0,1.690558099E0,1.678043888E0,1.289334440E-1,2.385464695E0
2.123686042E0,1.098339234E0,2.066359819E0,9.859061209E-1,2.539331182E0
2.133694042E0,1.540373973E0,2.568145646E0,4.295317110E-1,3.025329987E0
2.143702042E0,4.433883695E-1,3.253483760E0,4.295224285E-1,3.311531268E0
2.153710042E0,-1.536397720E0,2.822917603E0,-3.605802476E-2,3.214137821E0
2.163719042E0,-3.074782909E0,1.993921587E0,-1.475755370E-1,3.667668438E0
2.173727042E0,-3.242289558E0,1.858757935E0,-8.617626429E-2,3.738294930E0
2.183735042E0,-3.480894256E0,2.259458853E0,2.136975692E-1,4.155411626E0
2.193744042E0,-3.581124303E0,2.296176444E0,1.950502503E-1,4.258511727E0
2.203752042E0,-2.757379671E0,2.580641146E0,-2.612261134E-1,3.785642675E0
2.213760042E0,-1.486875897E0,3.378035885E0,-8.792680371E-1,3.794079421E0
2.223768042E0,-5.321303920E-1,2.848516129E0,-6.978154868E-1,2.980629689E0
2.233777042E0,1.816906781E-1,1.697526811E0,6.468704510E-1,1.825664305E0
2.243785042E0,1.206113943E0,9.063096553E-1,2.764364755E0,3.149257140E0
2.253793042E0,1.298738517E0,-2.677293867E-1,4.232666094E0,4.435522858E0
2.263802042E0,1.366860626E0,-1.032200208E0,4.304986796E0,4.633212337E0
2.273810042E0,1.396198007E0,3.118717718E-1,2.120878673E0,2.558272703E0
2.283818042E0,7.047518925E-1,-5.674611694E-1,-7.647701991E-1,1.184719742E0
2.293827042E0,-1.580563202E0,-6.326392052E0,-1.303509260E0,6.649853594E0
2.303835042E0,-2.774196848E-2,-8.025604615E0,-4.318320787E-1,8.037261847E0
2.313843042E0,1.726425651E0,-5.034706446E0,1.766104710E0,5.607846322E0
2.323851042E0,8.453202724E-1,-2.820717296E0,9.305329156E-1,3.088187807E0
2.333860042E0,-7.689790249E-2,-1.858135207E0,-7.657981396E-1,2.011225130E0
2.343868042E0,-9.524465257E-1,-5.741626632E-1,-1.388578062E0,1.779035183E0
2.353876042E0,-6.650536837E-1,1.596072357E0,-9.551508629E-1,1.975362382E0
2.363885042E0,-6.665586108E-1,2.746681021E0,-2.336910268E-1,2.836048044E0
2.373893042E0,-1.159352152E0,3.240204148E0,9.345250290E-2,3.442637609E0
2.383901042E0,-1.902995191E0,3.463561354E0,-2.479161695E-1,3.959685642E0
2.393909042E0,-2.063672438E0,3.354961603E0,-8.264724306E-1,4.024620226E0
2.403918042E0,-2.124596332E0,2.897393589E0,-8.419277179E-1,3.690208865E0
2.413926042E0,-2.144351004E0,2.068811556E0,-4.522844696E-1,3.013765705E0
2.423934042E0,-1.906566671E0,1.643704945E0,-3.023548436E-1,2.535385743E0
2.433943042E0,-1.630909921E0,1.159368378E0,2.996639550E-1,2.023314284E0
2.443951042E0,-1.463144826E0,2.795653206E-1,1.326079513E0,1.994351129E0
2.453959042E0,-1.087587959E0,-1.963670433E-2,1.778852810E0,2.085078053E0
2.463968042E0,-4.699600178E-1,-7.165411949E-1,1.815567477E0,2.007630186E0
2.473976042E0,-4.172061458E-2,-1.181013601E0,1.572641394E0,1.967164124E0
2.483984042E0,-8.386851445E-2,-1.143972659E0,1.423749064E0,1.828324033E0
2.493992042E0,-3.706234252E-1,-1.109094602E0,1.048640825E0,1.570700525E0
2.504001042E0,-6.772477596E-1,-8.549523908E-1,7.035358179E-1,1.297910153E0
2.514009042E0,-8.112077625E-1,-4.240658069E-1,5.704694887E-1,1.078575579E0
2.524017042E0,-8.150632703E-1,-5.063279450E-2,4.544396802E-1,9.345625915E-1
2.534026042E0,-7.036298119E-1,1.742312390E-1,2.937991977E-1,7.821568930E-1
2.544034042E0,-6.656078535E-1,3.588178968E-1,1.946410183E-1,7.808131811E-1
2.554042042E0,-7.804063846E-1,4.930804932E-1,-1.352687560E-2,9.232255815E-1
2.564050042E0,-1.040457062E0,5.479110038E-1,-2.693975608E-1,1.206371589E0
2.574059042E0,-1.342336819E0,5.988560396E-1,-5.578173566E-1,1.572150405E0
2.584067042E0,-1.653867113E0,5.692013007E-1,-9.481996930E-1,1.989560054E0
2.594075042E0,-2.035905765E0,4.349422127E-1,-1.311447440E0,2.460483977E0
2.604084042E0,-2.511662713E0,1.858631051E-1,-1.482206018E0,2.922315752E0
2.614092042E0,-2.743662103E0,3.517275631E-2,-1.310583222E0,3.040813582E0
2.624100042E0,-2.558395999E0,-3.581185699E-2,-6.658586260E-1,2.643868432E0
2.634109042E0,-1.975900615E0,-1.685787356E-1,1.575146341E-1,1.989324732E0
2.644117042E0,-1.346349763E0,-3.372913724E-1,9.514051366E-1,1.682734349E0
2.654125042E0,-7.788577496E-1,-5.117986000E-1,1.431832255E0,1.708420559E0
2.664133042E0,-3.334990145E-1,-5.827837980E-1,1.456187078E0,1.603539633E0
2.674142042E0,5.651480108E-3,-3.806829751E-1,1.135269810E0,1.197409290E0
2.684150042E0,9.085915312E-2,2.033369243E-2,8.324014342E-1,8.375923784E-1
2.694158042E0,1.185819720E-1,3.382362825E-1,4.652102514E-1,5.872699932E-1
2.704167042E0,1.503243130E-1,6.289434725E-1,5.280510820E-2,6.488109664E-1
2.714175042E0,-6.260920778E-2,7.711752391E-1,-2.681193960E-1,8.188523510E-1
2.724183042E0,-3.937067708E-1,8.124115580E-1,-6.218222217E-1,1.096211857E0
2.734191042E0,-8.973773025E-1,9.315602714E-1,-8.432304045E-1,1.544062200E0
2.744200042E0,-1.194010938E0,1.192127404E0,-9.977910984E-1,1.960208393E0
2.754208042E0,-1.140328236E0,1.301102546E0,-1.085820930E0,2.042602118E0
2.764216042E0,-9.474252293E-1,1.230835387E0,-6.699388862E-1,1.691563899E0
2.774225042E0,-6.579241736E-1,9.913603306E-1,8.235459723E-2,1.192661646E0
2.784233042E0,-4.527035688E-1,6.156416416E-1,8.514563406E-1,1.144086121E0
2.794241042E0,-3.968413170E-1,2.098197323E-1,1.355011536E0,1.427432525E0
2.804250042E0,-4.932993253E-1,-5.555147231E-2,1.490731258E0,1.571212868E0
2.814258042E0,-6.127411303E-1,-2.364333344E-1,1.339024079E0,1.491421435E0
2.824266042E0,-7.849645816E-1,-3.698393136E-1,1.071351410E0,1.378674855E0
2.834274042E0,-9.306833352E-1,-4.753628451E-1,8.184452999E-1,1.327401226E0
2.844283042E0,-9.732228523E-1,-6.045956665E-1,5.734960075E-1,1.281247951E0
2.854291042E0,-8.860301958E-1,-6.637776750E-1,3.311605668E-1,1.155559445E0
2.864299042E0,-6.152291206E-1,-6.669041812E-1,-1.085243225E-3,9.073418515E-1
2.874308042E0,-1.820178299E-1,-5.743222922E-1,-2.180893763E-1,6.407336122E-1
2.884316042E0,3.161893559E-1,-3.593763059E-1,-2.644860093E-1,5.468819682E-1
2.894324042E0,7.212536122E-1,-2.343768686E-1,-4.667949931E-1,8.905261676E-1
2.904332042E0,9.079911683E-1,-9.343850613E-3,-5.906062031E-1,1.083213255E0
2.914341042E0,1.021415604E0,2.939295906E-1,-4.335594924E-1,1.147892971E0
2.924349042E0,9.550388888E-1,4.448742932E-1,-6.990017407E-1,1.264363812E0
2.934357042E0,7.936817569E-1,6.096178401E-1,-1.154701130E0,1.528037743E0
2.944366042E0,5.723054413E-1,6.310198188E-1,-2.179320277E0,2.339905212E0
2.954374042E0,2.209811899E-1,6.852235079E-1,-2.750145496E0,2.842826796E0
2.964382042E0,2.905819134E-1,8.179208046E-1,-1.964616658E0,2.147824691E0
2.974391042E0,6.443226729E-1,6.025748688E-1,-1.432799238E0,1.682605669E0
2.984399042E0,1.087270601E0,1.414833230E-1,-1.194553267E0,1.621459959E0
2.994407042E0,1.384390432E0,-2.966982472E-1,-9.407560413E-1,1.699879010E0
3.004415042E0,1.385373934E0,-4.670633072E-1,-7.556321704E-1,1.645718398E0
3.014424042E0,1.330009573E0,-5.601696914E-1,-9.417909984E-1,1.723277642E0
3.024432042E0,1.142631308E0,-6.999467969E-1,-1.229031959E0,1.818255037E0
3.034440042E0,9.501393606E-1,-9.833432132E-1,-1.403605114E0,1.959549947E0
3.044449042E0,7.524112317E-1,-9.979717773E-1,-1.634799489E0,2.057824021E0
3.054457042E0,5.779162833E-1,-7.497972339E-1,-1.697953073E0,1.944023601E0
3.064465042E0,5.294257624E-1,-5.569712645E-1,-1.633071198E0,1.804835219E0
3.074473042E0,5.760596462E-1,-4.350761139E-1,-1.512436269E0,1.675887648E0
3.084482000E0,5.480772109E-1,-3.043434817E-1,-1.300133078E0,1.443384774E0
3.094490000E0,4.362658761E-1,-1.806544054E-1,-1.009598819E0,1.114564357E0
3.104498000E0,2.531949627E-1,-8.837306321E-2,-6.532253511E-1,7.061308992E-1
3.114507000E0,3.721898943E-2,-7.245284915E-3,-1.756141055E-1,1.796609623E-1
3.124515000E0,-5.949717343E-2,5.603035927E-2,3.640429688E-1,3.731040041E-1
3.134523000E0,5.569794506E-2,1.390263230E-1,6.287908602E-1,6.463810992E-1
3.144532000E0,1.921738587E-1,1.822787619E-1,5.500464070E-1,6.104976567E-1
3.154540000E0,2.086149135E-1,3.201157612E-1,4.122016601E-1,5.620538153E-1
3.164548000E0,2.352422565E-1,6.057949305E-1,3.771288912E-1,7.513671656E-1
3.174556000E0,5.229578649E-1,7.815359205E-1,1.008505098E-1,9.457558611E-1
3.184565000E0,8.300124080E-1,8.044032115E-1,-3.664811846E-1,1.212556631E0
3.194573000E0,9.370684947E-1,7.335378814E-1,-7.692573524E-1,1.417015194E0
3.204581000E0,8.761330524E-1,5.677874440E-1,-8.589114674E-1,1.351932179E0
3.214590000E0,7.580986722E-1,2.732129055E-1,-6.798462622E-1,1.054300635E0
3.224598000E0,6.642283492E-1,-1.038319319E-1,-3.198779257E-1,7.445147798E-1
3.234606000E0,6.439352949E-1,-4.172292423E-1,1.238546987E-1,7.772212626E-1
3.244614000E0,7.150482546E-1,-5.576495415E-1,5.662674603E-1,1.069077104E0
3.254623000E0,8.226571955E-1,-5.476999193E-1,8.675282899E-1,1.315045777E0
3.264631000E0,8.701235765E-1,-5.653397995E-1,9.949269859E-1,1.437568723E0
3.274639000E0,7.583815312E-1,-5.528191566E-1,1.048712161E0,1.407319709E0
3.284648000E0,3.456388575E-1,-6.081852722E-1,1.040080647E0,1.253444573E0
3.294656000E0,-9.658430815E-3,-4.144646788E-1,1.086852525E0,1.163238009E0
3.304664000E0,-4.411510786E-1,-8.391982377E-2,1.333154644E0,1.406754462E0
3.314673000E0,-8.179351303E-1,3.899215758E-2,1.308816047E0,1.543871015E0
3.324681000E0,-3.522086428E-1,4.475055403E-1,1.305420130E0,1.424230969E0
3.334689000E0,1.079489565E-1,8.162531787E-1,1.407434163E0,1.630580618E0
3.344697000E0,5.611167942E-1,9.497989064E-1,1.488953705E0,1.853092862E0
3.354706000E0,1.475452776E0,1.169461257E0,1.483906388E0,2.397202264E0
3.364714000E0,2.244863910E0,1.225694515E0,1.184518568E0,2.818656641E0
3.374722000E0,2.702275219E0,1.708210258E0,8.378932853E-1,3.304896186E0
3.384731000E0,2.508059951E0,2.405786594E0,5.220826828E-1,3.514362557E0
3.394739000E0,3.096705290E0,3.644243826E0,-8.168114416E-1,4.851523230E0
3.404747000E0,1.484891206E0,4.498999751E0,-1.825158080E0,5.077115585E0
3.414755000E0,-9.403041977E-1,5.285383598E0,-2.454627217E0,5.902935417E0
3.424764000E0,-3.269521210E0,5.988702484E0,-2.723559376E0,7.346570769E0
3.434772000E0,-5.419392425E0,5.904552864E0,-1.994277098E0,8.258976930E0
3.444780000E0,-6.223956435E0,5.322723917E0,-3.610948026E-1,8.197524813E0
3.454789000E0,-5.451287232E0,4.415820769E0,1.368068515E0,7.147560214E0
3.464797000E0,-3.817311469E0,3.643792421E0,2.850564701E0,5.997900397E0
3.474805000E0,-2.241170955E0,3.161284279E0,3.206085645E0,5.029468233E0
3.484814000E0,-4.363060758E-1,3.420150456E0,2.186639091E0,4.082791036E0
3.494822000E0,9.124714512E-1,3.447530043E0,8.679630303E-1,3.670344312E0
3.504830000E0,1.731723521E0,2.933827590E0,-4.343779564E-2,3.407065823E0
3.514838000E0,2.313169037E0,2.624233893E0,-5.650348672E-1,3.543531984E0
3.524847000E0,2.729439628E0,2.478080399E0,-4.020636114E-1,3.708419919E0
3.534855000E0,1.447526767E0,1.298008200E0,3.549637046E-1,1.976400329E0
3.544863000E0,-2.214770338E-1,-3.515012759E-1,6.547992754E-1,7.754787647E-1
3.554872000E0,-1.357520868E0,-1.609501072E0,7.301652074E-1,2.228564076E0
3.564880000E0,-2.086086570E0,-2.376769786E0,7.785006309E-1,3.256816702E0
3.574888000E0,-1.494454181E0,-2.790796509E0,3.415428829E-1,3.184115261E0
3.584896000E0,-2.390134183E-1,-2.198206930E0,7.810386148E-1,2.345050626E0
3.594905000E0,1.148816785E0,-5.858576792E-1,1.062724428E0,1.671045312E0
3.604913000E0,2.459997008E0,1.552800037E0,1.059182477E0,3.095907097E0
3.614921000E0,2.085493955E0,3.228456507E0,-1.276836017E-1,3.845584423E0
3.624930000E0,-9.115458369E-2,2.980194840E0,-2.137474240E0,3.668605535E0
3.634938000E0,-2.487570138E0,1.968123672E0,-3.043991472E0,4.396293900E0
3.644946000E0,-2.662944507E0,7.690836900E-1,-2.825383374E0,3.957973520E0
3.654955000E0,-2.363065667E0,-1.564890325E-1,-2.696582370E0,3.588889054E0
3.664963000E0,-1.434355621E0,-2.636813593E-1,-1.834173317E0,2.343308700E0
3.674971000E0,-3.329606321E-1,-3.466077411E-1,-1.805938867E0,1.868800390E0
3.684979000E0,2.924908832E-1,-9.188706440E-1,-2.157792730E0,2.363460099E0
3.694988000E0,6.720441762E-1,-2.040706914E0,-2.263299012E0,3.120681096E0
3.704996000E0,1.394239336E-1,-3.786484364E0,-2.898044092E0,4.770279072E0
3.715004000E0,-1.526364191E0,-5.630368152E0,-3.969713006E0,7.056164292E0
3.725013000E0,-3.665567452E0,-6.679077973E0,-3.412007039E0,8.347949410E0
3.735021000E0,-5.212892157E0,-6.702144070E0,-2.961071229E0,8.992270158E0
3.745029000E0,-4.872376337E0,-6.196125442E0,-2.810314515E0,8.368386305E0
3.755037000E0,-3.554468016E0,-5.983941096E0,-3.345537060E0,7.722332040E0
3.765046000E0,-2.511050802E0,-6.370255525E0,-3.955608644E0,7.907741228E0
3.775054000E0,-2.328776425E0,-7.310997094E0,-4.163301452E0,8.729659623E0
3.785062000E0,-2.798321583E0,-8.538052256E0,-4.176656493E0,9.908249061E0
3.795071000E0,-3.421045957E0,-9.752418959E0,-4.280350723E0,1.118635925E1
3.805079000E0,-3.822432168E0,-1.052269139E1,-4.388033046E0,1.202467695E1
3.815087000E0,-3.957259606E0,-1.023432776E1,-4.239984469E0,1.176345343E1
3.825095000E0,-3.878637359E0,-1.024877038E1,-4.194752748E0,1.173358738E1
3.835104000E0,-4.009594817E0,-1.026798667E1,-3.973171926E0,1.171727341E1
3.845112000E0,-3.767187675E0,-9.244791178E0,-3.408449008E0,1.054871516E1
3.855120000E0,-3.463578896E0,-8.659690129E0,-3.105996223E0,9.830250477E0
3.865129000E0,-3.399438741E0,-8.756068030E0,-3.250079803E0,9.939211731E0
3.875137000E0,-3.506675507E0,-9.170473067E0,-3.466325041E0,1.041200070E1
3.885145000E0,-3.620536583E0,-9.150099029E0,-3.111352565E0,1.032051899E1
3.895153000E0,-3.999422708E0,-9.859324772E0,-2.907045880E0,1.102962296E1
3.905162000E0,-3.377881226E0,-1.042070893E1,-2.667258875E0,1.127455215E1
3.915170000E0,-3.270659956E0,-9.672186390E0,-1.791877775E0,1.036625449E1
3.925178000E0,-3.773186918E0,-8.209375001E0,-9.104035833E-1,9.080727510E0
3.935187000E0,-3.746749025E0,-6.570960617E0,-5.339009289E-1,7.582921725E0
3.945195000E0,-3.136495008E0,-4.999712030E0,-3.159276929E-1,5.910544105E0
3.955203000E0,-2.257634229E0,-3.454554303E0,2.725387216E-2,4.126935973E0
3.965211000E0,-1.050467641E0,-1.566011236E0,5.030992587E-1,1.951661426E0
3.975220000E0,1.123166804E-1,4.043905109E-1,1.050555203E0,1.131288185E0
3.985228000E0,8.785963382E-1,2.351439648E0,1.241199138E0,2.800316990E0
3.995236000E0,2.067681728E0,4.369654663E0,1.044063624E0,4.945630238E0
4.005245000E0,3.166872463E0,6.395384519E0,5.120067608E-1,7.154870737E0
4.015253000E0,3.583007983E0,8.265260934E0,-4.905239443E-1,9.021812360E0
4.025261000E0,3.805542778E0,1.023428098E1,-1.401251317E0,1.100845895E1
4.035270000E0,4.144998205E0,1.248366508E1,-1.878708927E0,1.328730414E1
4.045278000E0,3.657640090E0,1.423157794E1,-1.887237822E0,1.481478343E1
4.055286000E0,2.581665286E0,1.556175635E1,-1.463628244E0,1.584220515E1
4.065294000E0,2.896471483E0,1.669368959E1,-1.030404455E0,1.697440875E1
4.075303000E0,2.784690846E0,1.740411577E1,1.262384623E0,1.767063563E1
4.085310542E0,1.970939545E0,1.728748954E1,2.468130777E0,1.757366117E1
4.095318542E0,1.082841920E0,1.660231515E1,2.882349873E0,1.688541844E1
4.105327542E0,4.836272997E-1,1.492021505E1,2.752772065E0,1.517973869E1
4.115335542E0,1.644073319E-1,1.316876229E1,1.907158263E0,1.330716284E1
4.125343542E0,1.839453645E-1,1.133755585E1,9.040812814E-1,1.137503282E1
4.135352542E0,7.831798652E-1,9.647358527E0,1.994017482E-2,9.679116430E0
4.145360542E0,1.038549261E0,8.194816604E0,-5.196537495E-2,8.260526868E0
4.155368542E0,1.148159850E0,7.281927661E0,5.121927023E-1,7.389660538E0
4.165376542E0,1.202689668E0,6.534927735E0,1.114644268E0,6.737519929E0
4.175385542E0,1.892052273E0,5.912667630E0,2.039795333E0,6.534544002E0
4.185393542E0,2.896408918E0,5.627793623E0,3.068168539E0,7.033839909E0
4.195401542E0,3.593050284E0,5.587045546E0,3.345981449E0,7.437787314E0
4.205410542E0,3.640805663E0,5.798172131E0,2.656088355E0,7.343641555E0
4.215418542E0,3.167124478E0,6.462340985E0,1.584256449E0,7.369016010E0
4.225426542E0,2.613367428E0,7.501915117E0,9.450306483E-1,8.000093916E0
4.235434542E0,1.897722903E0,8.543949757E0,1.020023236E0,8.811406078E0
4.245443542E0,1.336362134E0,9.320911986E0,1.106440551E0,9.481005996E0
4.255451542E0,1.085394229E0,9.872731268E0,1.119766356E0,9.995137819E0
4.265459542E0,1.099401527E0,1.018058249E1,1.208587900E0,1.031085003E1
4.275468542E0,1.332848981E0,1.034726556E1,1.278929905E0,1.051085404E1
4.285476542E0,1.689932886E0,1.057250031E1,1.031585666E0,1.075629141E1
4.295484542E0,2.030683032E0,1.082676765E1,3.183762145E-1,1.102016038E1
4.305493542E0,1.605552301E0,1.054194978E1,-2.757347365E-1,1.066707706E1
4.315501542E0,9.358130975E-1,1.001252416E1,-1.948396774E-1,1.005804895E1
4.325509542E0,-1.301850405E-1,8.725608130E0,-1.196965901E0,8.808286595E0
4.335517542E0,-2.351195819E0,5.547462235E0,-1.607516527E0,6.235909590E0
4.345526542E0,-4.840715711E0,4.746705347E-1,-2.371511239E0,5.411275845E0
4.355534542E0,-5.473260484E0,-6.386155858E0,-6.862281765E0,1.085497480E1
4.365542542E0,-3.393505864E0,-1.435610726E1,-8.444146557E0,1.699756773E1
4.375551542E0,8.000438198E-1,-2.807437685E1,-8.708262949E0,2.940483887E1
4.385559542E0,-7.030674559E-1,-4.572339272E1,-1.030354008E1,4.687521609E1
4.395567542E0,-6.876035585E0,-5.621856009E1,-1.129522786E1,5.775282276E1
4.405575542E0,-4.519530202E0,-3.670593836E1,-1.682089577E0,3.702136531E1
4.415584542E0,-4.404992018E0,-1.405246603E1,8.525429871E0,1.701642473E1
4.425592542E0,-8.425602697E0,-5.025745588E0,1.155770820E1,1.516012923E1
4.435600542E0,-8.623763666E0,-1.014921101E0,1.071794044E1,1.379397013E1
4.445609542E0,-9.384135590E0,-9.892775524E-1,7.975078239E0,1.235485912E1
4.455617542E0,-8.592838327E0,-1.841070693E0,4.773591722E0,1.000067946E1
4.465625542E0,-6.152363126E0,-1.528218927E0,2.613387016E0,6.856880983E0
4.475633542E0,-1.955127358E0,-1.234289337E0,-4.702402456E-1,2.359474315E0
4.485642542E0,5.886090866E-1,-1.153885444E0,-2.277092886E0,2.619745080E0
4.495650542E0,2.411327708E0,-5.398184574E-1,-2.864242215E0,3.782828142E0
4.505658542E0,4.069674081E0,2.625282884E-1,-3.333992318E0,5.267511082E0
4.515667542E0,4.811075883E0,1.098837417E0,-3.567537128E0,6.089434783E0
4.525675542E0,5.400176720E0,2.487523652E0,-3.623901948E0,6.962926673E0
4.535683542E0,5.409414736E0,3.764161448E0,-3.166802881E0,7.311588041E0
4.545691542E0,5.155882974E0,4.300344107E0,-2.302963161E0,7.097867849E0
4.555700542E0,4.768261108E0,3.481405887E0,-1.270660480E0,6.039128993E0
4.565708542E0,3.398870684E0,1.923325814E0,-1.313131146E-1,3.907524440E0
4.575716542E0,2.586763766E0,1.372272516E0,1.295295092E0,3.201916304E0
4.585725542E0,1.890854471E0,1.743384769E0,2.675889073E0,3.711482644E0
4.595733542E0,8.973920667E-1,2.527318048E0,3.489155202E0,4.400778688E0
4.605741542E0,1.655419841E-1,3.366698134E0,3.472908128E0,4.839747033E0
4.615750542E0,-6.076417735E-1,3.965442492E0,2.962080166E0,4.986770658E0
4.625758542E0,-1.156116303E0,3.874951567E0,1.573146447E0,4.338968114E0
4.635766542E0,-1.362158003E0,3.493130724E0,-2.516606534E-1,3.757761270E0
4.645774542E0,-1.098029770E0,3.165180863E0,-2.020434033E0,3.912312993E0
4.655783542E0,-7.687483522E-1,2.824430863E0,-3.256309719E0,4.378577019E0
4.665791542E0,-1.008044045E0,2.359316432E0,-3.513525227E0,4.350561613E0
4.675799542E0,-1.162964123E0,1.566153324E0,-3.104330059E0,3.666358807E0
4.685808542E0,-1.173476686E0,2.622867984E-1,-2.510645882E0,2.783735735E0
4.695816542E0,-9.778183253E-1,-1.273692554E0,-1.739174774E0,2.367097440E0
4.705824542E0,-7.042915705E-1,-2.722872913E0,-3.971779704E-1,2.840389737E0
4.715832542E0,-4.165398556E-1,-3.888904778E0,1.608202990E0,4.228877236E0
4.725841542E0,-1.789838558E-1,-4.387393361E0,3.552204559E0,5.647956529E0
4.735849542E0,-1.341102764E-2,-3.847878959E0,3.635877045E0,5.293954498E0
4.745857542E0,-3.722088978E-2,-2.761411911E0,2.254741319E0,3.565198389E0
4.755866542E0,-1.454883733E-1,-1.698627841E0,9.880344343E-1,1.970460721E0
4.765874542E0,-2.290351447E-1,-7.795186311E-1,-9.761210248E-2,8.183119920E-1
4.775882542E0,-3.689544837E-1,-1.413476676E-1,-9.604927330E-1,1.038582141E0
4.785891542E0,-4.135854037E-1,2.815691614E-1,-1.502857214E0,1.583955140E0
4.795899542E0,-3.638574658E-1,5.747812986E-1,-1.669819779E0,1.803070684E0
4.805907542E0,-1.761198896E-1,7.706174147E-1,-1.317381049E0,1.536347045E0
4.815915542E0,9.714257106E-2,7.951675344E-1,-5.119059695E-1,9.506712409E-1
4.825924542E0,5.774233630E-1,7.799448931E-1,2.747325969E-1,1.008568181E0
4.835932542E0,1.010932862E0,7.598795879E-1,6.886229329E-1,1.440001313E0
4.845940542E0,1.271629071E0,7.372432619E-1,7.679534233E-1,1.658409052E0
4.855949542E0,1.164992376E0,7.355230111E-1,4.725403941E-1,1.456535533E0
4.865957542E0,8.308718026E-1,7.469075400E-1,-2.740005255E-3,1.117240499E0
4.875965542E0,4.786998510E-1,7.469888163E-1,-3.385140252E-1,9.495986438E-1
4.885973542E0,2.242152849E-1,6.813216609E-1,-3.681816280E-1,8.062440144E-1
4.895982542E0,1.336461537E-1,5.189871669E-1,-2.221368921E-1,5.801325474E-1
4.905990542E0,1.729999615E-1,3.174985474E-1,7.876097158E-2,3.700508140E-1
4.915998542E0,3.776701972E-1,2.179444385E-1,3.706362891E-1,5.722812376E-1
4.926007542E0,5.663577998E-1,1.729255557E-1,4.191659132E-1,7.255097987E-1
4.936015542E0,6.358488880E-1,1.808918023E-1,1.571439207E-1,6.794997162E-1
4.946023542E0,5.134561394E-1,2.203189927E-1,-1.722357304E-1,5.846732528E-1
4.956031542E0,3.899312237E-1,2.935939604E-1,-3.664812577E-1,6.103706128E-1
4.966040542E0,3.253750393E-1,3.741089505E-1,-4.100373133E-1,6.433949186E-1
4.976048542E0,2.543699607E-1,4.629404354E-1,-3.433928689E-1,6.300290359E-1
4.986056542E0,2.210629047E-1,5.316955054E-1,-1.220405269E-1,5.886109144E-1
4.996065542E0,2.520135328E-1,5.758829141E-1,3.087059431E-1,7.003222906E-1
5.006073542E0,3.730437340E-1,5.411469448E-1,7.934553234E-1,1.030326644E0
5.016081542E0,6.705987445E-1,4.653354549E-1,1.040094534E0,1.322133277E0
5.026090542E0,9.131438810E-1,4.860866386E-1,1.004338957E0,1.441807445E0
5.036098542E0,1.209271001E0,6.153685766E-1,8.990001972E-1,1.627641298E0
5.046106542E0,1.521986088E0,7.318860430E-1,4.777938250E-1,1.755102781E0
5.056114542E0,1.646926176E0,9.610103577E-1,1.867381409E-2,1.906896811E0
5.066123542E0,1.885733918E0,1.440529988E0,-3.057555842E-1,2.392614791E0
5.076131542E0,2.225561521E0,1.888890392E0,-1.134496661E0,3.131790809E0
5.086140375E0,1.723785779E0,2.512218783E0,-2.000610802E0,3.644876432E0
5.096149375E0,1.211041977E0,3.418502126E0,-2.241897326E0,4.263670141E0
5.106157375E0,9.573855226E-1,4.124300231E0,-1.922193647E0,4.649867509E0
5.116165375E0,-2.143790987E-1,3.993026147E0,-6.525109676E-1,4.051664691E0
5.126173375E0,-1.519259239E0,3.180529220E0,1.115860123E0,3.697168993E0
5.136182375E0,-1.674932146E0,2.849908351E0,2.230079079E0,3.987559153E0
5.146190375E0,-1.225683990E0,2.716409401E0,2.583572063E0,3.944112813E0
5.156198375E0,-1.622152108E-1,2.656885915E0,2.208455053E0,3.458703552E0
5.166207375E0,1.507010345E0,2.623625783E0,1.584580239E0,3.415462921E0
5.176215375E0,2.837609902E0,2.626554068E0,5.811889699E-1,3.910063535E0
5.186223375E0,3.393969255E0,3.487672348E0,-5.982967535E-1,4.903146410E0
5.196232375E0,2.527451949E0,4.120867331E0,-1.235594728E0,4.989614739E0
5.206240375E0,9.022274217E-1,3.410158149E0,-5.696924669E-1,3.573197787E0
5.216248375E0,-5.632716393E-1,3.282622190E0,1.282030098E0,3.568821171E0
5.226256375E0,-1.717598548E0,3.355197245E0,2.175454537E0,4.352022032E0
5.236265375E0,-2.496963690E0,2.997310225E0,1.798956414E0,4.295921372E0
5.246273375E0,-2.222072926E0,2.284532883E0,6.779118571E-1,3.258260743E0
5.256281375E0,-1.453283643E0,1.632592896E0,-4.910608649E-1,2.240208402E0
5.266290375E0,-4.350337216E-1,1.107545090E0,-9.623979020E-1,1.530398702E0
5.276298375E0,4.083195475E-1,6.102481699E-1,-8.004221347E-1,1.086187496E0
5.286306375E0,5.050740096E-1,-5.368211746E-2,-8.493364325E-1,9.896231103E-1
5.296314375E0,2.934255606E-1,-8.249111509E-1,-1.015237143E0,1.340627996E0
5.306323375E0,-7.565914062E-1,-1.383024961E0,-1.135502675E0,1.942821382E0
5.316331375E0,-1.340618030E0,-1.351334807E0,-1.070372586E0,2.183817743E0
5.326339375E0,-2.009724857E0,-6.227863544E-1,-2.140116889E0,3.001159300E0
5.336348375E0,-1.923891532E0,1.101615429E-3,-2.881120788E0,3.464421573E0
5.346356375E0,-1.329051945E0,2.525880218E-2,-2.422420461E0,2.763175342E0
5.356364375E0,-1.041318356E0,-4.804692185E-1,-2.135586466E0,2.424030558E0
5.366372375E0,-4.722006708E-1,-1.310620644E0,-2.359922789E0,2.740426156E0
5.376381375E0,-3.678948221E-1,-2.219324149E0,-3.040038461E0,3.781875213E0
5.386389375E0,-1.073136273E0,-3.099597323E0,-4.336982176E0,5.437696150E0
5.396397375E0,-2.159864398E0,-3.830849528E0,-3.932336726E0,5.899465607E0
5.406406375E0,-3.295599208E0,-4.428688152E0,-3.041508744E0,6.302779412E0
5.416414375E0,-3.804213999E0,-5.082666478E0,-2.328628491E0,6.762252090E0
5.426422375E0,-3.594680488E0,-5.864989434E0,-2.375790670E0,7.277651419E0
5.436430375E0,-3.153755696E0,-6.747245983E0,-2.740593192E0,7.936142286E0
5.446439375E0,-2.864488675E0,-7.754494368E0,-2.997213454E0,8.793222774E0
5.456447375E0,-2.911407026E0,-8.595413441E0,-3.155613064E0,9.608086017E0
5.466455375E0,-2.970155756E0,-9.126277472E0,-3.284691519E0,1.014396195E1
5.476464375E0,-2.801862072E0,-9.291147319E0,-3.312701144E0,1.025425953E1
5.486472375E0,-2.767132535E0,-9.269395092E0,-3.391100904E0,1.025076939E1
5.496480375E0,-2.871976327E0,-9.264004544E0,-3.548782476E0,1.032782094E1
5.506488375E0,-3.029691521E0,-9.516850428E0,-3.539416698E0,1.059608151E1
5.516497375E0,-3.514159943E0,-9.868743467E0,-3.453551506E0,1.103034160E1
5.526505375E0,-4.046434322E0,-1.001670141E1,-3.224423098E0,1.127407833E1
5.536513375E0,-4.476523931E0,-9.917981701E0,-2.798190021E0,1.123545704E1
5.546522375E0,-5.046976243E0,-9.666808121E0,-2.630083155E0,1.121768630E1
5.556530375E0,-5.260851604E0,-9.451211339E0,-2.761919157E0,1.116378757E1
5.566538375E0,-4.796786749E0,-9.324609180E0,-2.733546713E0,1.083650207E1
5.576546375E0,-4.406459669E0,-9.029882029E0,-2.489816053E0,1.035156221E1
5.586555375E0,-3.773318188E0,-8.426106727E0,-2.211050924E0,9.493468856E0
5.596563375E0,-3.558084811E0,-7.912845739E0,-2.019621270E0,8.907972007E0
5.606571375E0,-3.164494400E0,-7.482718123E0,-1.646185188E0,8.289452394E0
5.616580375E0,-2.570283681E0,-6.889674801E0,-1.180434580E0,7.447644115E0
5.626588375E0,-1.733883044E0,-5.696346379E0,-3.208051479E-1,5.963021752E0
5.636596375E0,-4.379473892E-1,-3.886144892E0,5.810005434E-1,3.953666864E0
5.646605375E0,1.219883552E0,-1.917843465E0,1.150498152E0,2.547525354E0
5.656613375E0,2.319948299E0,-1.243638450E-1,1.774275755E0,2.923299665E0
5.666621375E0,2.545322502E0,1.618271311E0,2.184211035E0,3.724009468E0
5.676629375E0,2.787056045E0,3.594943027E0,1.847899071E0,4.909788972E0
5.686638375E0,2.948325176E0,5.753611085E0,7.540361729E-1,6.508857996E0
5.696646375E0,3.034131312E0,8.075928676E0,-5.252879072E-1,8.643061043E0
5.706654375E0,3.058015726E0,1.023366469E1,-1.902926194E0,1.084898526E1
5.716663375E0,2.731698700E0,1.210710206E1,-2.914721228E0,1.274910577E1
5.726671375E0,2.282874320E0,1.381891888E1,-3.075721972E0,1.433994769E1
5.736679375E0,2.178523010E0,1.557650303E1,-3.137555108E0,1.603800677E1
5.746687375E0,2.283736346E0,1.642789739E1,-1.825616502E0,1.668604626E1
5.756696375E0,1.758346186E0,1.670807374E1,-3.642838740E-1,1.680429148E1
5.766704375E0,6.878186484E-1,1.657835677E1,7.437227078E-1,1.660927847E1
5.776712375E0,4.871724665E-2,1.634219592E1,1.487255527E0,1.640980407E1
5.786721375E0,-4.992295714E-1,1.643655127E1,2.189373103E0,1.658923754E1
5.796729375E0,-8.797032161E-1,1.648088485E1,2.665932727E0,1.671827266E1
5.806737375E0,-7.621173173E-1,1.654542759E1,2.945555935E0,1.682285043E1
5.816745375E0,5.069224606E-1,1.442624344E1,3.050252670E0,1.475389818E1
5.826754375E0,1.560337537E0,1.098169314E1,2.487689713E0,1.136753436E1
5.836762375E0,1.759730953E0,7.763977382E0,1.877757293E0,8.179362461E0
5.846770375E0,1.929386307E0,5.495806178E0,9.841752720E-1,5.907200524E0
5.856779375E0,2.024014137E0,4.066020448E0,4.195448128E-1,4.561268832E0
5.866787375E0,2.139308219E0,3.548897374E0,5.672653607E-1,4.182475608E0
5.876795375E0,2.517058523E0,3.925339363E0,1.188803262E0,4.812185150E0
5.886804375E0,2.840347861E0,4.977338828E0,1.933207608E0,6.048038479E0
5.896812375E0,2.976211717E0,6.328567801E0,2.271723973E0,7.353185459E0
5.906820375E0,3.040868474E0,7.493452442E0,1.825125335E0,8.290343362E0
5.916828375E0,2.562788720E0,8.281310956E0,1.152300191E0,8.745043906E0
5.926837375E0,2.106401844E0,9.042361157E0,8.465914571E-1,9.322979197E0
5.936845375E0,1.772715426E0,9.704909163E0,7.234936074E-1,9.891977802E0
5.946853375E0,1.547613411E0,1.022053301E1,5.904097366E-1,1.035388748E1
5.956862375E0,1.612193276E0,1.053606865E1,3.663034292E-1,1.066499357E1
5.966870375E0,1.598493981E0,1.034834262E1,3.081623713E-1,1.047560700E1
5.976878375E0,1.768087793E0,9.903604567E0,4.311199609E-1,1.006942810E1
5.986886375E0,1.109082762E0,9.009036705E0,1.198920406E-2,9.077056278E0
5.996895375E0,-8.790676238E-1,7.035608439E0,-7.141848401E-1,7.126191549E0
6.006903375E0,-2.494888805E0,4.167960806E0,-1.310408975E0,5.031256216E0
6.016911375E0,-3.436394898E0,3.311664140E-1,-3.076123091E0,4.623960895E0
6.026920375E0,-2.237617456E0,-2.679793552E0,-7.413586493E0,8.194479242E0
6.036928375E0,-1.292459485E0,-8.431490259E0,-8.641784785E0,1.214252543E1
6.046936375E0,-1.845228940E0,-3.690014544E1,-1.163654855E1,3.873544714E1
6.056944375E0,-6.859309040E0,-6.653606099E1,-1.877436749E1,6.947355185E1
6.066953375E0,-7.744543576E0,-5.650552740E1,-1.555774282E1,5.911764494E1
6.076961375E0,-6.714957658E0,-2.465433573E1,-1.878127129E0,2.562136390E1
6.086968250E0,-1.237915429E1,-1.169429331E1,1.144689645E1,2.051904957E1
6.096977250E0,-1.384007177E1,-3.536263295E0,2.241918609E1,2.658331525E1
6.106985250E0,-7.116950226E0,-1.306884273E0,1.715338365E1,1.861712915E1
6.116993250E0,-4.760785735E0,-3.390903268E0,8.854194249E0,1.060943267E1
6.127001250E0,-3.582925245E0,-3.357105192E0,3.870303615E0,6.251940391E0
6.137010250E0,-1.663038179E0,-2.875078275E0,-3.196368742E-1,3.336755730E0
6.147018250E0,-2.821310788E-2,-2.228524743E0,-2.816187166E0,3.591382556E0
6.157026250E0,6.823566180E-1,-1.124599664E0,-4.142128977E0,4.345982906E0
6.167035250E0,1.489769099E0,3.854350072E-1,-4.864740751E0,5.102320520E0
6.177043250E0,2.407299561E0,2.223068122E0,-4.723476698E0,5.748769883E0
6.187051250E0,2.725269394E0,3.744720626E0,-3.704219302E0,5.930536778E0
6.197060250E0,2.456067679E0,4.952694569E0,-1.883919089E0,5.840428329E0
6.207068250E0,3.062046504E0,5.682700732E0,-1.070656761E0,6.543357112E0
6.217076250E0,4.095534854E0,6.175846714E0,-1.358606404E0,7.533943173E0
6.227084250E0,3.756946277E0,6.134688163E0,-1.848803051E0,7.427456961E0
6.237093250E0,2.588948578E0,5.659386129E0,-1.584465634E0,6.421980803E0
6.247101250E0,1.505975827E0,5.541829028E0,-3.484672288E-1,5.753369584E0
6.257109250E0,4.434835330E-1,5.628320457E0,8.468791401E-1,5.708929242E0
6.267118250E0,-4.482840970E-1,5.523021458E0,1.284404068E0,5.688094450E0
6.277126250E0,-8.323242509E-1,4.666427169E0,4.811685455E-1,4.764433792E0
6.287134250E0,-9.305750155E-1,3.389464853E0,-1.003867598E0,3.655433217E0
6.297142250E0,-1.376755284E0,2.487770990E0,-1.843225976E0,3.388501381E0
6.307151250E0,-1.721189323E0,1.753102841E0,-1.933021667E0,3.126089414E0
6.317159250E0,-1.595213108E0,9.258165514E-1,-1.659408227E0,2.481023340E0
6.327167250E0,-1.288987554E0,-4.850382328E-2,-1.114796149E0,1.704878878E0
6.337176250E0,-8.219793570E-1,-1.155011033E0,-3.071624243E-1,1.450534144E0
6.347184250E0,-1.980425629E-1,-2.355022822E0,5.346238641E-1,2.423050974E0
6.357192250E0,3.344440708E-1,-3.324892881E0,1.172150464E0,3.541285391E0
6.367200250E0,5.870904185E-1,-3.833016506E0,1.318402119E0,4.095714204E0
6.377209250E0,7.870195855E-1,-3.487645451E0,8.759387056E-1,3.681078542E0
6.387217250E0,7.316506925E-1,-2.365364208E0,1.988299636E-1,2.483906988E0
6.397225250E0,5.372912908E-1,-1.130600662E0,-3.324165487E-1,1.295160434E0
6.407234250E0,3.099490611E-1,-1.761000091E-1,-6.549723530E-1,7.456999510E-1
6.417242250E0,2.763812193E-1,4.147424215E-1,-7.989471745E-1,9.416551610E-1
6.427250250E0,3.841098820E-1,6.947433597E-1,-7.755302453E-1,1.109799936E0
6.437259250E0,6.884482473E-1,7.164178187E-1,-5.675833031E-1,1.144275442E0
6.447267250E0,7.241511999E-1,6.282915080E-1,-1.194434130E-1,9.661324486E-1
6.457275250E0,5.005086498E-1,5.404897177E-1,4.090092266E-1,8.425714159E-1
6.467283250E0,1.204244296E-1,5.411551309E-1,7.488996863E-1,9.317733947E-1
6.477292250E0,4.845002890E-3,6.267262083E-1,9.246400917E-1,1.117035592E0
6.487300250E0,-1.241583154E-2,7.767078745E-1,1.024853182E0,1.285983406E0
6.497308250E0,6.972366124E-3,8.773940045E-1,1.096743529E0,1.404533809E0
6.507317250E0,5.457001716E-2,9.351416910E-1,9.508484817E-1,1.334758669E0
6.517325250E0,8.790894046E-2,9.052401996E-1,6.798673853E-1,1.135520789E0
6.527333250E0,1.269611782E-1,7.230432987E-1,4.229455534E-1,8.472270615E-1
6.537341250E0,1.799819756E-1,3.670314807E-1,2.176486424E-1,4.631161311E-1
6.547350250E0,3.200039332E-1,-1.647207427E-1,1.265946309E-1,3.815254131E-1
6.557358250E0,5.781763382E-1,-6.399473476E-1,1.262894062E-1,8.716475778E-1
6.567366250E0,8.827222797E-1,-1.001667218E0,4.080194391E-2,1.335739734E0
6.577375250E0,1.012722548E0,-1.157389680E0,-7.958535589E-2,1.539964824E0
6.587383250E0,9.378616695E-1,-1.110978575E0,-1.622625732E-1,1.462937814E0
6.597391250E0,6.447224763E-1,-8.375083923E-1,-4.114802599E-2,1.057724226E0
6.607399250E0,4.138026278E-1,-4.590023357E-1,1.767287309E-1,6.427665231E-1
6.617408250E0,2.755193397E-1,-1.607510680E-1,3.163075427E-1,4.492240799E-1
6.627416250E0,1.895886585E-1,9.167498589E-2,3.611532748E-1,4.180668013E-1
6.637424250E0,9.427860484E-2,2.931752998E-1,3.435250159E-1,4.613563138E-1
6.647433250E0,-6.734223649E-2,3.863430798E-1,1.895082593E-1,4.355563482E-1
6.657441250E0,-2.284043764E-1,4.112598199E-1,5.339918531E-2,4.734497561E-1
6.667449250E0,-3.474361454E-1,3.358933032E-1,-3.120074272E-2,4.842619875E-1
6.677457250E0,-3.774937575E-1,2.275812346E-1,3.171602860E-3,4.408001977E-1
6.687466250E0,-3.045729849E-1,7.077937603E-2,1.884757141E-1,3.650993262E-1
6.697474250E0,-1.165608819E-1,-7.319252193E-2,4.449486990E-1,4.657498569E-1
6.707482250E0,9.332390070E-2,-1.488303494E-1,6.551161945E-1,6.782603126E-1
6.717491250E0,3.309804726E-1,-1.266302258E-1,7.842906169E-1,8.606364267E-1
6.727499250E0,5.173837142E-1,-1.301590204E-3,8.331767750E-1,9.807502945E-1
6.737507250E0,6.198494442E-1,1.592916030E-1,7.959557390E-1,1.021338674E0
6.747516250E0,6.037462123E-1,3.479789132E-1,7.052524142E-1,9.914533678E-1
6.757524250E0,5.519680944E-1,5.404680830E-1,6.454719432E-1,1.006681953E0
6.767532250E0,4.988870707E-1,7.273795938E-1,5.801291621E-1,1.055707927E0
6.777540250E0,4.744746530E-1,9.032492226E-1,5.545277131E-1,1.161243445E0
6.787549250E0,5.670223358E-1,1.076703951E0,5.336169735E-1,1.328741059E0
6.797557250E0,6.839192864E-1,1.194608377E0,5.141794400E-1,1.469426848E0
6.807565250E0,7.903564453E-1,1.277330106E0,5.105718541E-1,1.586480107E0
6.817574250E0,7.544188732E-1,1.260165020E0,5.166412640E-1,1.556946341E0
6.827582250E0,6.469365245E-1,1.105229593E0,5.347500908E-1,1.387810138E0
6.837590250E0,4.475806770E-1,8.805620259E-1,5.844597562E-1,1.147741761E0
6.847598250E0,2.476015162E-1,6.486515129E-1,6.540824068E-1,9.538758257E-1
6.857607250E0,1.117835605E-1,4.449731112E-1,7.574399833E-1,8.855574303E-1
6.867615250E0,1.514844006E-1,3.092048568E-1,9.034087054E-1,9.668001118E-1
6.877623250E0,4.365513664E-1,2.637462634E-1,1.012593910E0,1.133792579E0
6.887632250E0,8.635723561E-1,2.998978436E-1,1.007640148E0,1.360527324E0
6.897640250E0,1.398359869E0,4.795219696E-1,7.390181842E-1,1.652724877E0
6.907648250E0,1.949620158E0,8.341696322E-1,1.564467864E-1,2.126342713E0
6.917657250E0,2.497859191E0,1.571512882E0,-4.452923691E-1,2.984499718E0
6.927665250E0,1.923545523E0,1.853790141E0,-7.366716966E-1,2.771146054E0
6.937673250E0,8.889489797E-1,2.028237142E0,-1.412894147E0,2.626831944E0
6.947681250E0,-4.055292562E-1,2.467112777E0,-2.136601689E0,3.288794036E0
6.957690250E0,-1.961683841E0,2.193612188E0,-2.290764992E0,3.729308538E0
6.967698250E0,-3.103717856E0,1.209279626E0,-1.879552681E0,3.824675152E0
6.977706250E0,-2.819655734E0,1.983071494E-1,-1.385548035E0,3.147940206E0
6.987715250E0,-1.956457015E0,-9.403024435E-1,-4.753821409E-1,2.222134316E0
6.997723250E0,-6.735121197E-1,-1.637169512E0,6.876617968E-1,1.899163324E0
7.007731250E0,7.545498508E-1,-1.447727911E0,1.790576477E0,2.423102495E0
7.017739250E0,1.866773591E0,-5.920036876E-1,2.666566565E0,3.308457231E0
7.027748250E0,2.816270781E0,4.828724241E-1,2.651135763E0,3.897828591E0
7.037756250E0,2.553572631E0,1.010864888E0,2.103074778E0,3.459119039E0
7.047764250E0,1.770588355E0,1.392274087E0,1.255033211E0,2.578472148E0
7.057773250E0,3.726354522E-1,1.466527879E0,3.463916865E-1,1.552272012E0
7.067781250E0,-9.581183249E-1,1.540498080E0,1.715856662E-1,1.822242218E0
7.077789250E0,-1.304019138E0,1.807763198E0,3.962511867E-2,2.229359514E0
7.087797500E0,-4.125520545E-1,2.478396733E0,-1.725931415E-1,2.518419734E0
7.097806500E0,7.762924299E-1,3.801950249E0,-2.683696568E-1,3.889662955E0
7.107814500E0,1.701749962E0,4.379092653E0,-5.419997612E-1,4.729288439E0
7.117822500E0,2.236772241E0,4.486967935E0,-8.603037626E-1,5.086860905E0
7.127831500E0,7.434465730E-1,4.127929013E0,-1.367105917E0,4.411517804E0
7.137839500E0,-1.136737899E0,3.772718849E0,-1.440396087E0,4.195273704E0
7.147847500E0,-2.233210117E0,3.040496591E0,-1.121751193E0,3.935755669E0
7.157855500E0,-2.648336116E0,2.378561373E0,-1.162480266E0,3.744676055E0
7.167864500E0,-2.462551656E0,1.945382096E0,-1.340059913E0,3.412393988E0
7.177872500E0,-1.569027523E0,1.696887125E0,-1.538505349E0,2.776377495E0
7.187880500E0,-7.819735846E-1,1.619203942E0,-1.977738249E0,2.672967017E0
7.197889500E0,-2.960693792E-1,2.010962128E0,-3.698758880E0,4.220479002E0
7.207897500E0,-6.518131024E-1,1.808004103E0,-4.279705775E0,4.691441215E0
7.217905500E0,-1.738351778E0,1.003560546E0,-2.769746240E0,3.420598618E0
7.227913500E0,-2.139458493E0,3.410283279E-1,-1.576158494E0,2.679152583E0
7.237922500E0,-2.136374379E0,-2.446387321E-1,-1.926067866E0,2.886811566E0
7.247930500E0,-1.958824845E0,-9.536457896E-1,-2.440622551E0,3.271555211E0
7.257938500E0,-1.855516531E0,-1.924012862E0,-3.866709332E0,4.700660395E0
7.267947500E0,-2.151185084E0,-3.409850585E0,-3.419130701E0,5.286315639E0
7.277955500E0,-2.698250872E0,-4.978752685E0,-2.860542097E0,6.344386271E0
7.287963500E0,-3.212624294E0,-6.037541353E0,-2.844113468E0,7.406878010E0
7.297971500E0,-3.421925086E0,-6.735186685E0,-3.079154872E0,8.158033201E0
7.307980500E0,-3.436187614E0,-7.065298846E0,-3.235119117E0,8.496577476E0
7.317988500E0,-3.203646771E0,-6.922104043E0,-3.039068701E0,8.210652568E0
7.327996500E0,-2.861296680E0,-6.965293917E0,-2.673584393E0,7.990644001E0
7.338005500E0,-2.641442834E0,-7.169269942E0,-2.427076306E0,8.016629662E0
7.348013500E0,-2.519793558E0,-7.314245807E0,-2.431807873E0,8.109330480E0
7.358021500E0,-2.610305241E0,-7.626036887E0,-2.534998950E0,8.449636189E0
7.368030500E0,-2.800632110E0,-7.988467194E0,-2.525779645E0,8.833952181E0
7.378038500E0,-2.896762967E0,-8.236701379E0,-2.389417899E0,9.052281656E0
7.388046500E0,-2.918832113E0,-8.320075073E0,-2.252356825E0,9.100348421E0
7.398054500E0,-2.725493635E0,-8.158159824E0,-2.253801380E0,8.891766300E0
7.408063500E0,-2.571831439E0,-7.975324407E0,-2.168431739E0,8.655761813E0
7.418071500E0,-2.875222701E0,-7.679221991E0,-2.124917052E0,8.470692324E0
7.428079500E0,-3.043899963E0,-7.530500985E0,-2.217110978E0,8.419581531E0
7.438088500E0,-3.017091941E0,-7.473189501E0,-2.512749418E0,8.441878625E0
7.448096500E0,-3.015823972E0,-7.405821975E0,-2.649709042E0,8.423915441E0
7.458104500E0,-3.679029497E0,-7.568315513E0,-2.543017530E0,8.790995160E0
7.468112500E0,-4.256510747E0,-7.793881212E0,-2.490665654E0,9.223116799E0
7.478121500E0,-4.327471095E0,-7.977487292E0,-2.077796095E0,9.310453597E0
7.488129500E0,-3.881712410E0,-7.934516689E0,-1.728256853E0,9.000617650E0
7.498137500E0,-2.515046789E0,-7.451085271E0,-1.444618654E0,7.995689784E0
7.508146500E0,-1.106982881E0,-6.703974248E0,-7.669433168E-1,6.837900545E0
7.518154500E0,5.609438628E-2,-5.592311549E0,5.161711478E-1,5.616362496E0
7.528162500E0,1.240766005E0,-4.268813581E0,1.617769912E0,4.730692250E0
7.538170500E0,1.912504664E0,-2.858160526E0,2.158980299E0,4.060535878E0
7.548179500E0,2.129028522E0,-1.172018829E0,2.010209591E0,3.153939312E0
7.558187500E0,2.140376798E0,8.338451117E-1,1.176251482E0,2.580712703E0
7.568195500E0,2.093162286E0,2.893950748E0,1.196077198E-2,3.571613410E0
7.578204500E0,2.219235272E0,5.145184323E0,-1.196237558E0,5.729651927E0
7.588212500E0,2.923920652E0,7.593166764E0,-2.028649371E0,8.385756481E0
7.598220500E0,3.415112495E0,9.728419062E0,-2.699047848E0,1.065786048E1
7.608228500E0,3.348997443E0,1.132133685E1,-3.400513752E0,1.228625027E1
7.618237500E0,3.050600287E0,1.313400293E1,-3.168553537E0,1.385091790E1
7.628245500E0,3.386848224E0,1.503393989E1,-1.728654609E0,1.550736393E1
7.638253500E0,2.970285564E0,1.639557047E1,2.435950041E-3,1.666245280E1
7.648262500E0,1.441205049E0,1.681300553E1,1.367979491E0,1.693002053E1
7.658270500E0,3.220163986E-2,1.668896855E1,2.556602658E0,1.688368814E1
7.668278500E0,-5.859455337E-1,1.660411843E1,3.132945163E0,1.690725958E1
7.678287500E0,-6.618282133E-1,1.653253916E1,3.019362999E0,1.681901961E1
7.688295500E0,-1.735488689E-1,1.631997884E1,2.533917800E0,1.651643327E1
7.698303500E0,1.089760199E-2,1.463449086E1,2.053567865E0,1.477787476E1
7.708311500E0,-1.969166815E-1,1.221054632E1,1.547880775E0,1.230983966E1
7.718320500E0,-1.767891034E-2,9.817959230E0,1.250775708E0,9.897326702E0
7.728328500E0,1.053390079E0,7.995151146E0,1.256731535E0,8.161583588E0
7.738336500E0,2.011295712E0,6.393637370E0,1.305980294E0,6.828579193E0
7.748345500E0,3.100210111E0,5.009546462E0,1.385979413E0,6.052090335E0
7.758353500E0,4.030562348E0,4.233811564E0,1.629622364E0,6.068464571E0
7.768361500E0,4.746836617E0,4.241980709E0,1.534794706E0,6.548469515E0
7.778369500E0,4.790225004E0,4.990260006E0,1.074086811E0,7.000186640E0
7.788378500E0,4.122817962E0,6.304714084E0,8.850801694E-1,7.584880654E0
7.798386500E0,3.298014108E0,7.549219092E0,8.778296951E-1,8.284816891E0
7.808394500E0,2.710416882E0,8.430274038E0,8.821542958E-1,8.899105361E0
7.818403500E0,2.477667293E0,9.059813341E0,8.043124335E-1,9.426874959E0
7.828411500E0,2.478821241E0,9.554843296E0,9.037994456E-1,9.912438580E0
7.838419500E0,2.589773620E0,1.000289497E1,1.260928667E0,1.040936003E1
7.848427500E0,2.837413728E0,1.042377755E1,1.455154459E0,1.090062060E1
7.858436500E0,2.586342474E0,1.025807681E1,1.312788645E0,1.066024021E1
7.868444500E0,1.723491957E0,9.615795257E0,1.110222384E0,9.831914193E0
7.878452500E0,2.954326174E-1,8.637996958E0,1.822578581E-1,8.644969046E0
7.888461500E0,-1.443195442E0,6.184932117E0,-1.467296641E0,6.518370794E0
7.898469500E0,-3.012616482E0,2.190152975E0,-2.786792336E0,4.651756619E0
7.908477500E0,-3.212146869E0,-2.423390222E0,-4.611056961E0,6.119849179E0
7.918485500E0,-1.510313291E0,-6.722846137E0,-6.718667132E0,9.623834706E0
7.928494500E0,2.283211997E-1,-1.750765358E1,-7.183488032E0,1.892544755E1
7.938502500E0,-9.641555750E-1,-3.581853217E1,-9.774894487E0,3.714088589E1
7.948510500E0,-1.033848538E1,-5.673434532E1,-1.340598734E1,5.920634016E1
7.958519500E0,-1.958504067E1,-5.538635629E1,-9.664715402E0,5.953678699E1
7.968527500E0,-1.126172448E1,-2.694055027E1,3.035590484E0,2.935701785E1
7.978535500E0,-9.812197384E0,-1.056985620E1,1.344748971E1,1.971892637E1
7.988544500E0,-1.076287863E1,-2.852300447E0,1.864249757E1,2.171446269E1
7.998552500E0,-6.696826612E0,1.008586228E-1,1.499550497E1,1.642324050E1
8.008560500E0,-9.838203460E-1,-7.928543758E-1,8.381020017E0,8.475731063E0
8.018568500E0,2.295960097E0,-2.288564538E0,2.003394077E0,3.810846132E0
8.028577500E0,3.328407642E0,-2.731896921E0,-2.600912858E0,5.030537339E0
8.038585500E0,3.763099886E0,-2.205053435E0,-4.842064079E0,6.516806423E0
8.048593500E0,3.706488022E0,-1.421438829E0,-5.646030504E0,6.901898452E0
8.058602500E0,3.195867343E0,-3.207612938E-1,-5.274786104E0,6.175744840E0
8.068610500E0,2.855074950E0,1.095624372E0,-3.792494717E0,4.871843790E0
8.078618500E0,3.126266181E0,2.289325261E0,-2.258169834E0,4.484850208E0
8.088626625E0,3.075594795E0,3.382147062E0,-1.083867814E0,4.698188112E0
8.098635625E0,2.823457301E0,4.581926132E0,-6.346917971E-1,5.419298100E0
8.108643625E0,2.752455439E0,5.415616293E0,-6.156183989E-1,6.106054109E0
8.118651625E0,2.873730492E0,5.901304736E0,-4.360479212E-1,6.578287187E0
8.128660625E0,2.569930509E0,6.063225832E0,4.667715311E-1,6.601903208E0
8.138668625E0,1.801092110E0,5.977945361E0,1.745492252E0,6.482785414E0
8.148676625E0,9.568407083E-1,5.263441921E0,2.292184550E0,5.820092354E0
8.158684625E0,2.466697624E-1,4.351109049E0,2.015997165E0,4.801795549E0
8.168693625E0,-5.068866464E-1,3.356690040E0,1.363767303E0,3.658437283E0
8.178701625E0,-1.263616339E0,2.622444645E0,5.340590230E-1,2.959588014E0
8.188709625E0,-1.870973353E0,2.114687641E0,-8.331799909E-2,2.824780876E0
8.198718625E0,-1.959360450E0,1.476637130E0,-7.683755922E-1,2.570982621E0
8.208726625E0,-1.224682361E0,6.377043557E-1,-1.959325951E0,2.396971405E0
8.218734625E0,-5.460398948E-1,-6.006844640E-2,-3.311603329E0,3.356856326E0
8.228742625E0,-3.341403079E-1,-4.776040828E-1,-3.950625647E0,3.993394347E0
8.238751625E0,-3.456353492E-1,-9.429062086E-1,-3.466552205E0,3.609088542E0
8.248759625E0,1.278654501E-1,-1.843158149E0,-2.082817976E0,2.784189695E0
8.258767625E0,6.660624745E-1,-3.020782118E0,-4.803674769E-1,3.130417982E0
8.268776625E0,7.318974450E-1,-3.690915717E0,6.182729618E-1,3.813239326E0
8.278784625E0,2.343087485E-1,-3.412410496E0,8.909436842E-1,3.534575878E0
8.288792625E0,-2.781859624E-1,-2.230696984E0,7.066909023E-1,2.356439792E0
8.298800625E0,-5.590648600E-1,-1.022302042E0,4.251404520E-1,1.240322291E0
8.308809625E0,-5.994711667E-1,-1.804216862E-2,3.489501357E-2,6.007569072E-1
8.318817625E0,-6.201822969E-1,7.934122002E-1,-3.479210258E-1,1.065447343E0
8.328825625E0,-6.236238219E-1,1.438092869E0,-4.975617993E-1,1.644562408E0
8.338834625E0,-4.608298829E-1,1.897061291E0,-6.167363135E-1,2.047332265E0
8.348842625E0,-1.858676367E-1,2.153328381E0,-7.331752809E-1,2.282304950E0
8.358850625E0,6.468526170E-2,2.125847052E0,-7.638896084E-1,2.259853359E0
8.368859625E0,1.939234918E-1,1.904688984E0,-6.605493542E-1,2.025283164E0
8.378867625E0,1.018055794E-1,1.516905735E0,-4.018487263E-1,1.572529740E0
8.388875625E0,-1.155123299E-1,1.084437479E0,-2.634872317E-1,1.121950652E0
8.398883625E0,-2.893971214E-1,6.991948450E-1,-1.741675043E-1,7.765039888E-1
8.408892625E0,-4.337008488E-1,3.351998234E-1,-1.158462059E-1,5.602460989E-1
8.418900625E0,-4.662427966E-1,1.699610174E-2,-1.368727203E-1,4.862153375E-1
8.428908625E0,-3.386077268E-1,-2.116580969E-1,-1.507750603E-1,4.268342318E-1
8.438917625E0,-1.017801440E-1,-3.564526981E-1,-1.707667637E-1,4.081409209E-1
8.448925625E0,1.159567183E-1,-4.666645271E-1,-9.547450662E-2,4.902419023E-1
8.458933625E0,3.422240835E-1,-5.506580257E-1,6.230332531E-2,6.513242580E-1
8.468941625E0,4.658117107E-1,-5.738451594E-1,2.636428408E-1,7.847205644E-1
8.478950625E0,4.374842897E-1,-5.177113044E-1,3.653446320E-1,7.699962329E-1
8.488958625E0,2.690327311E-1,-3.296046227E-1,2.522956610E-1,4.946422124E-1
8.498966625E0,9.824784100E-3,-6.498010755E-2,5.416867889E-2,8.516564174E-2
8.508975625E0,-1.856847650E-1,1.698265314E-1,5.287878312E-2,2.571304113E-1
8.518983625E0,-3.328533357E-1,3.974948895E-1,1.186400056E-1,5.318542857E-1
8.528991625E0,-3.831908458E-1,6.266145265E-1,1.144007012E-1,7.433495205E-1
8.538999625E0,-3.287912750E-1,7.465391654E-1,7.684337720E-3,8.157717064E-1
8.549008625E0,-2.914278594E-1,7.739187527E-1,-1.396958292E-1,8.386866862E-1
8.559016625E0,-3.205838308E-1,7.095789152E-1,-2.456250843E-1,8.164606001E-1
8.569024625E0,-3.527613509E-1,5.545709825E-1,-2.834847093E-1,7.157884643E-1
8.579033625E0,-3.384143302E-1,3.125915641E-1,-1.117016995E-1,4.740411527E-1
8.589041625E0,-2.967865402E-1,2.113066792E-2,1.362167358E-1,3.272365424E-1
8.599049625E0,-2.976922739E-1,-2.305656534E-1,2.046817839E-1,4.285741979E-1
8.609058625E0,-2.578566554E-1,-4.020960635E-1,2.235144230E-1,5.273803147E-1
8.619066625E0,-2.077986422E-1,-5.430186385E-1,3.034389905E-1,6.558389577E-1
8.629074625E0,-5.962522745E-2,-5.694012755E-1,3.718115795E-1,6.826542543E-1
8.639082625E0,1.178193489E-1,-5.099339229E-1,4.225583216E-1,6.726585611E-1
8.649091625E0,2.150567910E-1,-3.831160015E-1,3.479841757E-1,5.604643436E-1
8.659099625E0,2.000218454E-1,-1.695318317E-1,1.348427133E-1,2.948429038E-1
8.669107625E0,1.120148179E-1,4.587842345E-2,-9.550849356E-2,1.541882664E-1
8.679116625E0,-1.897830784E-2,2.358445197E-1,-2.227940460E-1,3.249923085E-1
8.689124625E0,-1.173913327E-1,3.350682610E-1,-1.788381871E-1,3.975356106E-1
8.699132625E0,-1.333144704E-1,3.764484215E-1,-7.085195459E-2,4.055935916E-1
8.709140625E0,-7.420058191E-2,3.306384104E-1,-1.227805652E-2,3.390844076E-1
8.719149625E0,1.618801653E-2,2.843658847E-1,5.205074430E-2,2.895432407E-1
8.729157625E0,1.499880981E-1,2.259691572E-1,1.509342507E-1,3.103862717E-1
8.739165625E0,3.282775971E-1,1.984001201E-1,2.249469908E-1,4.446683451E-1
8.749174625E0,4.378073484E-1,1.295573419E-1,2.149471557E-1,5.046411189E-1
8.759182625E0,3.750693557E-1,6.940878868E-2,1.350764557E-1,4.046483046E-1
8.769190625E0,2.062412363E-1,3.423544765E-3,8.485596299E-2,2.230419303E-1
8.779199625E0,5.201390684E-2,-5.188936114E-2,1.334370426E-1,1.523266117E-1
8.789207625E0,-2.893056124E-2,-1.209034628E-1,2.284132934E-1,2.600524125E-1
8.799215625E0,-3.687809676E-2,-2.534633499E-1,3.920546401E-1,4.683059946E-1
8.809223625E0,-1.649791896E-3,-3.630863643E-1,4.544502052E-1,5.816867015E-1
8.819232625E0,1.478550339E-1,-4.225110322E-1,2.985154887E-1,5.380410583E-1
8.829240625E0,2.574780482E-1,-4.490421885E-1,-1.628449559E-2,5.178793462E-1
8.839248625E0,2.334714273E-1,-3.981579638E-1,-2.390517175E-1,5.197926463E-1
8.849257625E0,1.128974551E-1,-2.688538063E-1,-2.873894799E-1,4.094153364E-1
8.859265625E0,9.606975317E-3,-1.348724610E-1,-2.700700271E-1,3.020276382E-1
8.869273625E0,-4.064458072E-2,-8.403092086E-2,-2.547783887E-1,2.713396487E-1
8.879281625E0,-1.222155780E-1,-8.492612958E-2,-2.002273750E-1,2.494796519E-1
8.889290625E0,-2.375595081E-1,-1.198012626E-1,-6.400946975E-2,2.736495471E-1
8.899298625E0,-3.455186972E-1,-1.007446021E-1,-6.828378439E-3,3.599712096E-1
8.909306625E0,-3.932889873E-1,-4.052354336E-2,-1.308114966E-1,4.164493159E-1
8.919315625E0,-3.719101050E-1,7.139684200E-2,-2.584247124E-1,4.584735186E-1
8.929323625E0,-4.443036050E-1,1.296766251E-1,-3.691031492E-1,5.919956547E-1
8.939331625E0,-5.308040974E-1,1.813508087E-1,-4.815017637E-1,7.392462743E-1
8.949339625E0,-5.654918271E-1,1.867834568E-1,-5.185894831E-1,7.896860885E-1
8.959348625E0,-4.978468511E-1,1.606931806E-1,-4.275471660E-1,6.756259057E-1
8.969356625E0,-3.708587757E-1,1.229727924E-1,-2.544239013E-1,4.662510705E-1
8.979364625E0,-2.207989030E-1,1.186920458E-1,-9.924011350E-2,2.696081553E-1
8.989373625E0,-1.174644229E-1,1.599909300E-1,-5.746409655E-2,2.066327919E-1
8.999381625E0,-5.946442902E-2,2.190723664E-1,-1.359265678E-1,2.645841111E-1
9.009389625E0,-7.210625544E-2,2.893319249E-1,-2.556612452E-1,3.927784963E-1
9.019397625E0,-5.590288997E-2,4.312450182E-1,-2.900101288E-1,5.226885054E-1
9.029406625E0,-3.288459465E-2,5.604293078E-1,-2.227977005E-1,6.039877656E-1
9.039414625E0,-1.607750416E-2,6.445736647E-1,-1.710662142E-1,6.670812132E-1
9.049422625E0,1.468776718E-2,7.390623307E-1,-1.498126817E-1,7.542365006E-1
9.059431625E0,5.724643394E-2,8.070520002E-1,-1.488326883E-1,8.226550032E-1
9.069439625E0,1.401235530E-1,8.234049082E-1,-1.198785190E-1,8.438015834E-1
9.079447625E0,3.315986694E-1,8.628636736E-1,-1.029248826E-1,9.300994184E-1
9.089457000E0,5.379154810E-1,8.968541229E-1,-1.206759330E-1,1.052740739E0
9.099465000E0,7.042366067E-1,8.912039584E-1,-1.074811061E-1,1.140940788E0
9.109473000E0,7.178389844E-1,9.045584142E-1,-6.438880786E-3,1.154798767E0
9.119481000E0,6.597939670E-1,9.425261396E-1,1.418604684E-1,1.159227327E0
9.129490000E0,5.850732753E-1,9.675820434E-1,3.341974644E-1,1.179073235E0
9.139498000E0,5.739448544E-1,9.874409419E-1,6.114070880E-1,1.295480967E0
9.149506000E0,6.270586225E-1,1.024950246E0,8.876132564E-1,1.493848324E0
9.159515000E0,8.016281229E-1,1.093343373E0,1.093551095E0,1.741798317E0
9.169523000E0,1.029066393E0,1.233269582E0,1.243671048E0,2.031415561E0
9.179531000E0,1.171738163E0,1.448937115E0,1.332074078E0,2.290591722E0
9.189539000E0,1.122392340E0,1.599390067E0,1.143528417E0,2.263950174E0
9.199548000E0,8.296994358E-1,1.859385341E0,8.271425946E-1,2.197698768E0
9.209556000E0,4.352933380E-1,2.402076536E0,5.934305544E-1,2.512292140E0
9.219564000E0,8.513107449E-2,2.993667995E0,2.705309339E-1,3.007072056E0
9.229573000E0,-7.072938234E-1,3.667459611E0,3.168737724E-1,3.748457488E0
9.239581000E0,-7.744183972E-1,4.398748654E0,3.093027976E-1,4.477095240E0
9.249589000E0,-1.005107427E0,4.407389084E0,-3.627250063E-1,4.535073198E0
9.259597000E0,-1.682352994E0,4.381894054E0,-5.727919297E-1,4.728572480E0
9.269606000E0,-1.218136696E0,4.340747783E0,-6.006426564E-1,4.548265595E0
9.279614000E0,6.654406232E-1,3.491499935E0,-2.924780193E-1,3.566360388E0
9.289622000E0,2.970070387E0,2.372866770E0,7.603964818E-1,3.876856667E0
9.299631000E0,4.751811428E0,1.657257621E0,1.593915611E0,5.278899663E0
9.309639000E0,5.042347587E0,1.293024618E0,2.417355310E0,5.739406638E0
9.319647000E0,4.143326486E0,1.299831362E0,2.944409588E0,5.246547795E0
9.329656000E0,2.524450866E0,1.198387433E0,2.632003966E0,3.838805737E0
9.339664000E0,8.640608910E-1,6.160994786E-1,1.235688576E0,1.628835795E0
9.349672000E0,-7.079922733E-1,-4.316250873E-1,-1.347607791E-1,8.400677012E-1
9.359680000E0,-2.125478092E0,-1.456737885E0,-8.228599477E-1,2.704965967E0
9.369689000E0,-2.372840458E0,-1.869999207E0,-7.781424889E-1,3.119739509E0
9.379697000E0,-1.409999044E0,-1.460888824E0,-3.067855713E-1,2.053390086E0
9.389705000E0,4.469237423E-1,-7.507398051E-1,-2.493805316E-1,9.085932731E-1
9.399714000E0,1.426824407E0,-3.918002862E-1,-1.363921523E-2,1.479703140E0
9.409722000E0,1.886762005E0,-9.571950495E-2,3.872955912E-1,1.928478925E0
9.419730000E0,2.058539168E0,1.834330022E-1,8.270681888E-2,2.068349968E0
9.429738000E0,2.036056623E0,7.996283752E-1,-6.082130465E-1,2.270430625E0
9.439747000E0,1.762268937E-1,4.118492192E-1,-1.704971486E0,1.762839603E0
9.449755000E0,-1.767050205E0,-2.314246094E-1,-1.485324338E0,2.319959518E0
9.459763000E0,-3.314653529E0,-8.263904965E-1,-5.187877768E-1,3.455284363E0
9.469772000E0,-3.269839007E0,-1.036463998E0,-4.478730378E-1,3.459291113E0
9.479780000E0,-2.267776225E0,-1.062606314E0,-1.121148053E-1,2.506892681E0
9.489788000E0,-1.166884974E0,-1.165274066E0,-9.896178603E-2,1.652052549E0
9.499796000E0,-6.021486068E-1,-1.423468398E0,-1.042310629E0,1.864204032E0
9.509805000E0,-5.845362085E-1,-1.400172506E0,-2.585369205E0,2.997715722E0
9.519813000E0,-1.403993369E0,-1.441321701E0,-3.411300695E0,3.960502248E0
9.529821000E0,-2.833572984E0,-1.798322868E0,-3.774829109E0,5.050983646E0
9.539830000E0,-3.516945264E0,-2.415083082E0,-3.171666595E0,5.316107530E0
9.549838000E0,-3.559948904E0,-2.800429797E0,-2.543649906E0,5.194785663E0
9.559846000E0,-2.751362302E0,-2.543652245E0,-2.480486236E0,4.493659224E0
9.569855000E0,-1.586409248E0,-2.386810625E0,-2.596316070E0,3.867094051E0
9.579863000E0,-1.001733291E0,-2.638847839E0,-3.638555655E0,4.605005403E0
9.589871000E0,-1.121913453E0,-3.739759848E0,-3.461613939E0,5.217975142E0
9.599879000E0,-1.973940190E0,-4.870909563E0,-3.487644866E0,6.307603868E0
9.609888000E0,-2.762436636E0,-5.573130927E0,-3.658553717E0,7.216360565E0
9.619896000E0,-3.289222234E0,-6.031114678E0,-3.843286555E0,7.871732891E0
9.629904000E0,-3.378813272E0,-6.122898422E0,-3.876543764E0,7.995864917E0
9.639913000E0,-3.162549324E0,-5.898285234E0,-3.682240203E0,7.638742033E0
9.649921000E0,-2.884730859E0,-5.494518036E0,-3.400147131E0,7.076185490E0
9.659929000E0,-2.652777661E0,-5.278792031E0,-3.278729113E0,6.756695881E0
9.669937000E0,-2.509591337E0,-5.279598947E0,-3.417548445E0,6.771399493E0
9.679946000E0,-2.528550641E0,-5.527855936E0,-3.493153528E0,7.010911579E0
9.689954000E0,-2.757279099E0,-6.030387869E0,-3.258582824E0,7.388269615E0
9.699962000E0,-3.059862861E0,-6.499314684E0,-2.874687096E0,7.737420629E0
9.709971000E0,-3.396144712E0,-7.008596057E0,-2.452726287E0,8.165175065E0
9.719979000E0,-3.748963950E0,-7.393704790E0,-2.256542847E0,8.591483390E0
9.729987000E0,-3.386720170E0,-7.484971640E0,-2.157323783E0,8.494040256E0
9.739995000E0,-2.588001914E0,-7.514377288E0,-2.102090692E0,8.220851854E0
9.750004000E0,-2.207900444E0,-7.326016837E0,-2.395198164E0,8.017625665E0
9.760012000E0,-1.642860315E0,-6.947476866E0,-2.350599111E0,7.516098789E0
9.770020000E0,-1.856888580E0,-6.718539078E0,-2.150833666E0,7.294716444E0
9.780029000E0,-2.837388293E0,-6.783616249E0,-1.894132713E0,7.593152209E0
9.790037000E0,-3.086611826E0,-7.100845240E0,-1.583808407E0,7.903013650E0
9.800045000E0,-2.810817960E0,-7.546735779E0,-8.990675864E-1,8.103224114E0
9.810053000E0,-2.851480959E0,-7.485531219E0,5.505285099E-2,8.010440194E0
9.820062000E0,-1.300945841E0,-6.814203619E0,4.315639839E-1,6.950689067E0
9.830070000E0,-4.632164240E-3,-5.550464196E0,1.383448884E0,5.720280156E0
9.840078000E0,1.430178370E0,-3.882480442E0,1.957281765E0,4.577118795E0
9.850087000E0,2.687005800E0,-1.994522097E0,2.181272224E0,3.994504610E0
9.860095000E0,3.130080320E0,1.002025652E-1,1.752042156E0,3.588466954E0
9.870103000E0,3.391452029E0,2.385007344E0,7.681569064E-1,4.216665973E0
9.880112000E0,3.750085739E0,4.674582866E0,-2.831547801E-1,5.999587040E0
9.890120000E0,4.287358318E0,7.062055396E0,-1.250751003E0,8.355743284E0
9.900128000E0,4.481727076E0,9.438950313E0,-2.632312406E0,1.077537606E1
9.910136000E0,4.129896601E0,1.162210359E1,-4.291155792E0,1.305922493E1
9.920145000E0,4.393700460E0,1.398042131E1,-4.476334773E0,1.532300091E1
9.930153000E0,3.875626043E0,1.614452962E1,-3.553149469E0,1.697913970E1
9.940161000E0,2.348383893E0,1.732959651E1,-1.983406978E0,1.760010584E1
9.950170000E0,4.725167128E-1,1.747961852E1,-2.580421583E-1,1.748790787E1
9.960178000E0,-4.701921523E-1,1.736517799E1,1.380504227E0,1.742630997E1
9.970186000E0,-6.821133739E-1,1.708745863E1,2.301262937E0,1.725521174E1
9.980194000E0,-8.071967188E-1,1.673806879E1,2.916287112E0,1.700938693E1
9.990203000E0,-7.991196674E-1,1.653421614E1,3.273128650E0,1.687401158E1
1.000021100E1,-4.468551837E-1,1.640579023E1,3.546031069E0,1.679059168E1
1.001021900E1,-4.922229990E-2,1.472224353E1,3.607583538E0,1.515788694E1
1.002022800E1,-1.914224915E-1,1.230103783E1,2.922210342E0,1.264482058E1
1.003023600E1,9.248994157E-2,9.629876522E0,2.019939358E0,9.839879635E0
1.004024400E1,1.428053784E-1,7.120325239E0,1.223440998E0,7.226080041E0
1.005025300E1,6.420369963E-1,5.272149594E0,7.136165638E-1,5.358826499E0
1.006026100E1,1.500465264E0,4.048789288E0,6.258731727E-1,4.363004463E0
1.007026900E1,2.599295226E0,3.471601861E0,7.992231631E-1,4.409888073E0
1.008027700E1,3.503295524E0,3.751421535E0,1.100002840E0,5.249404662E0
1.009028538E1,3.735162767E0,4.934254205E0,1.681915330E0,6.413044880E0
1.010029337E1,3.322716547E0,6.370540869E0,1.965995286E0,7.449118987E0
1.011030137E1,2.844670415E0,7.520933771E0,1.803843809E0,8.240779516E0
1.012031038E1,2.709477527E0,8.419741448E0,1.595943718E0,8.987788987E0
1.013031837E1,2.813970779E0,9.123723409E0,1.201160767E0,9.623073707E0
1.014032638E1,2.770512225E0,9.666764266E0,7.938951071E-1,1.008723643E1
1.015033537E1,2.444924494E0,9.848967015E0,8.033383604E-1,1.017964437E1
1.016034337E1,1.962005292E0,9.799844556E0,4.205492183E-1,1.000316349E1
1.017035138E1,7.489124040E-1,8.899490290E0,-7.282006160E-1,8.960584431E0
1.018035937E1,-1.378305089E0,6.566371137E0,-1.957045537E0,6.989061601E0
1.019036837E1,-2.763008786E0,2.795688289E0,-2.775265135E0,4.811671968E0
1.020037637E1,-3.020377199E0,-1.168032782E0,-4.558575861E0,5.591743278E0
1.021038437E1,-2.049808398E0,-3.493770994E0,-7.933931383E0,8.908165772E0
1.022039338E1,-2.547663435E0,-1.269733170E1,-8.042582005E0,1.524453825E1
1.023040137E1,-6.780604348E0,-3.972247949E1,-1.144323726E1,4.189032885E1
1.024040937E1,-1.647844306E1,-6.989461278E1,-1.891788856E1,7.426090822E1
1.025041738E1,-1.464557484E1,-5.073627151E1,-1.412306999E1,5.466372851E1
1.026042637E1,-9.139132576E0,-1.978296658E1,-5.326778376E-1,2.179846913E1
1.027043437E1,-1.024474399E1,-8.761771404E0,1.110374792E1,1.746472546E1
1.028044237E1,-6.872314417E0,-8.053691715E-1,2.591150113E1,2.681945592E1
1.029045137E1,1.738522224E0,1.416000334E0,2.223060403E1,2.234339437E1
1.030045938E1,3.238761640E0,-1.525837941E0,1.055247594E1,1.114327182E1
1.031046737E1,2.156386182E0,-2.846314652E0,3.100074748E0,4.728844669E0
1.032047537E1,2.285227825E0,-2.511922914E0,-1.910099266E0,3.896216388E0
1.033048438E1,2.306509351E0,-1.925623185E0,-4.527460488E0,5.433774794E0
1.034049237E1,2.122708559E0,-8.084448069E-1,-5.522733775E0,5.971604724E0
1.035050037E1,2.463010662E0,6.624924570E-1,-4.969272594E0,5.585605419E0
1.036050937E1,2.206460567E0,2.002286029E0,-4.601770413E0,5.482144518E0
1.037051737E1,2.188326013E0,3.289863381E0,-3.730796067E0,5.434225897E0
1.038052538E1,2.139948782E0,4.245355722E0,-2.920244508E0,5.579449254E0
1.039053437E1,2.167225166E0,4.840408732E0,-1.966396258E0,5.656247507E0
1.040054237E1,2.735016118E0,5.135020108E0,-1.236586708E0,5.947931688E0
1.041055038E1,2.858701686E0,5.512913961E0,-3.051663311E-1,6.217517363E0
1.042055837E1,1.961742313E0,5.612871528E0,1.030381140E0,6.034438250E0
1.043056737E1,5.151531476E-1,5.539643923E0,2.413516613E0,6.064495033E0
1.044057537E1,-8.342620182E-1,5.499409817E0,3.433713073E0,6.536810148E0
1.045058337E1,-1.483964860E0,5.222110292E0,3.113013175E0,6.258069881E0
1.046059238E1,-1.780262573E0,4.404487111E0,1.465774173E0,4.971653192E0
1.047060037E1,-1.658080617E0,3.315402265E0,-6.099897230E-1,3.756755379E0
1.048060837E1,-9.965938810E-1,2.289598911E0,-2.094807107E0,3.259398618E0
1.049061738E1,-6.992229116E-1,1.381521057E0,-2.893218677E0,3.281497741E0
1.050062537E1,-8.195428222E-1,5.852384591E-1,-2.952680182E0,3.119691451E0
1.051063338E1,-7.965015766E-1,-1.651809186E-1,-2.494644392E0,2.623918851E0
1.052064137E1,-5.305976906E-1,-1.281271130E0,-1.703125520E0,2.196321050E0
1.053065037E1,-2.127971345E-1,-2.783904396E0,-5.979899939E-1,2.855345572E0
1.054065838E1,1.394750968E-1,-4.076216823E0,5.771925442E-1,4.119241207E0
1.055066637E1,2.515758687E-1,-4.621971374E0,1.401418548E0,4.836308896E0
1.056067537E1,2.854014266E-1,-3.981905912E0,1.402509638E0,4.231319174E0
1.057068338E1,3.015783334E-1,-2.560054854E0,6.767603210E-1,2.665114421E0
1.058069137E1,8.478696585E-2,-1.070086657E0,-9.024702273E-2,1.077227371E0
1.059069938E1,-7.340916127E-2,1.145036852E-1,-7.832918394E-1,7.950132732E-1
1.060070837E1,-1.920786953E-1,9.843588746E-1,-1.060074397E0,1.459319823E0
1.061071637E1,-2.010465699E-1,1.512360694E0,-1.035390961E0,1.843824567E0
1.062072438E1,-1.333138856E-1,1.696384265E0,-7.626405700E-1,1.864701801E0
1.063073337E1,-2.139730096E-1,1.511115237E0,-5.343839820E-1,1.617040491E0
1.064074137E1,-4.506659603E-1,1.186777786E0,-4.050577513E-1,1.332521333E0
1.065074937E1,-5.947068554E-1,9.457438624E-1,-2.931314456E-1,1.155003784E0
1.066075837E1,-5.483735186E-1,7.799425542E-1,-1.565288667E-1,9.661910732E-1
1.067076638E1,-4.026132497E-1,6.798575181E-1,4.259696603E-2,7.912762951E-1
1.068077437E1,-2.197787100E-1,6.160988939E-1,2.285419321E-1,6.929011063E-1
1.069078237E1,-7.160851121E-2,5.578261274E-1,3.704784874E-1,6.734627509E-1
1.070079138E1,4.749634802E-2,4.435639322E-1,4.526188572E-1,6.355066443E-1
1.071079937E1,2.135581496E-1,2.183783019E-1,3.520313991E-1,4.660711018E-1
1.072080737E1,3.980079827E-1,-3.738066494E-2,1.217869771E-1,4.178991938E-1
1.073081637E1,5.493976584E-1,-4.220344841E-1,-2.207323909E-2,6.931364373E-1
1.074082437E1,5.740018648E-1,-8.244071209E-1,-3.448760882E-3,1.004558179E0
1.075083238E1,5.584199122E-1,-1.068448268E0,-7.671780825E-2,1.208014951E0
1.076084137E1,4.045247045E-1,-1.114101573E0,-1.882757393E-1,1.200129287E0
1.077084937E1,2.105480030E-1,-9.868790245E-1,-2.934845444E-1,1.050901446E0
1.078085738E1,5.594542846E-2,-6.982224530E-1,-3.977403995E-1,8.055072378E-1
1.079086537E1,3.026811182E-3,-2.890752321E-1,-3.748205566E-1,4.733540970E-1
1.080087437E1,5.176481545E-2,7.331999123E-2,-2.665102422E-1,2.812172229E-1
1.081088237E1,1.266372424E-1,3.803777504E-1,-4.796573326E-2,4.037634651E-1
1.082089037E1,2.146859314E-1,6.192113668E-1,1.650166118E-1,6.758278243E-1
1.083089938E1,2.337887849E-1,7.795619005E-1,1.959262363E-1,8.371147130E-1
1.084090737E1,1.835423452E-1,8.006721032E-1,5.738691330E-2,8.234420848E-1
1.085091537E1,9.331001356E-2,7.550614822E-1,-1.059304246E-1,7.681444235E-1
1.086092338E1,-3.369414166E-2,6.795090240E-1,-2.025755437E-1,7.098624232E-1
1.087093237E1,-1.441838595E-1,5.517801064E-1,-2.462484705E-1,6.211993081E-1
1.088094037E1,-1.675768152E-1,3.610977262E-1,-2.159996545E-1,4.529121412E-1
1.089094837E1,-1.198769841E-1,1.340175980E-1,-2.690062724E-2,1.818099327E-1
1.090095737E1,-1.591056615E-2,-2.964070559E-2,2.176883304E-1,2.202723921E-1
1.091096538E1,1.501626375E-1,-1.321418113E-1,3.369948455E-1,3.918874863E-1
1.092097337E1,3.353182295E-1,-1.267699742E-1,1.378527868E-1,3.840733422E-1
1.093098237E1,3.306311014E-1,-1.202895051E-1,-2.038316718E-1,4.066126421E-1
1.094099038E1,1.512025648E-1,-1.142668730E-1,-3.800842933E-1,4.247154387E-1
1.095099837E1,-6.743301451E-2,-8.530152082E-2,-3.022519326E-1,3.212161137E-1
1.096100638E1,-2.065657568E-1,-6.101511061E-2,-1.503856357E-1,2.626939189E-1
1.097101537E1,-2.536127463E-1,-2.299943805E-2,-3.197257519E-3,2.546735591E-1
1.098102337E1,-2.258428574E-1,7.567992747E-2,1.277183926E-1,2.702673407E-1
1.099103138E1,-1.920020968E-1,1.257578212E-1,1.513644596E-1,2.749382374E-1
1.100104037E1,-1.155555993E-1,1.496442819E-1,8.250772119E-2,2.062862857E-1
1.101104837E1,-5.745035559E-2,1.366605395E-1,-3.536520280E-2,1.524051967E-1
1.102105638E1,-7.776796818E-5,8.982785046E-2,-1.156449886E-1,1.464336442E-1
1.103106537E1,4.935050011E-3,2.190600872E-2,-1.931499783E-1,1.944508731E-1
1.104107337E1,-9.165802896E-3,-2.882092595E-3,-2.496550584E-1,2.498398819E-1
1.105108137E1,-5.022173524E-2,-4.461600959E-2,-1.789119351E-1,1.911080624E-1
1.106108937E1,-8.746089756E-2,-4.145442009E-2,-8.298251510E-2,1.274910795E-1
1.107109838E1,-6.212608159E-2,-1.506242752E-3,4.960426927E-2,7.951416421E-2
1.108110637E1,3.888339937E-2,6.951637745E-2,1.430253068E-1,1.637091441E-1
1.109111450E1,1.170060012E-1,1.559697998E-1,1.794218123E-1,2.649701294E-1
1.110112350E1,1.696142775E-1,2.216410482E-1,2.125416112E-1,3.508100538E-1
1.111113150E1,2.157128486E-1,2.677071673E-1,2.367012099E-1,4.174046277E-1
1.112113950E1,2.140586713E-1,2.691584462E-1,2.622347581E-1,4.324747996E-1
1.113114850E1,2.386485520E-1,2.776953810E-1,3.154538492E-1,4.833001004E-1
1.114115650E1,2.358035892E-1,2.617699045E-1,3.883007276E-1,5.243131418E-1
1.115116450E1,2.217287564E-1,1.719940943E-1,4.312005794E-1,5.144701639E-1
1.116117250E1,2.577674854E-1,9.491258919E-2,4.341803205E-1,5.137752688E-1
1.117118150E1,2.971607620E-1,4.712212622E-2,4.207633726E-1,5.172686235E-1
1.118118950E1,3.500298241E-1,-3.292099357E-2,4.141069753E-1,5.432211857E-1
1.119119750E1,4.305673259E-1,-1.025993389E-1,4.426845840E-1,6.260067791E-1
1.120120650E1,5.350085378E-1,-1.488543230E-1,4.238402505E-1,6.985930882E-1
1.121121450E1,6.212763110E-1,-1.727776212E-1,4.582135463E-1,7.910726989E-1
1.122122250E1,6.550568452E-1,-2.256592548E-1,4.825556512E-1,8.443231172E-1
1.123123050E1,6.741836724E-1,-3.373323029E-1,4.507070370E-1,8.783242795E-1
1.124123950E1,7.291355127E-1,-4.468974298E-1,3.618023888E-1,9.285778789E-1
1.125124750E1,7.420628294E-1,-4.284231520E-1,3.198918859E-1,9.146225771E-1
1.126125550E1,7.993751907E-1,-2.712722147E-1,3.384182040E-1,9.094592848E-1
1.127126450E1,8.532414955E-1,-1.602721810E-2,3.995929436E-1,9.423122847E-1
1.128127250E1,7.909671870E-1,2.169428104E-1,4.646864140E-1,9.426700044E-1
1.129128050E1,7.252722573E-1,4.014780128E-1,4.639931535E-1,9.499968887E-1
1.130128950E1,5.842105186E-1,4.722597277E-1,3.529450265E-1,8.300008266E-1
1.131129750E1,3.948121870E-1,4.773093832E-1,2.284096389E-1,6.602059325E-1
1.132130550E1,2.092537218E-1,4.449918222E-1,2.164649467E-1,5.372726637E-1
1.133131350E1,7.518700719E-2,3.598119235E-1,3.607955714E-1,5.150642199E-1
1.134132250E1,8.310384482E-2,2.793589139E-1,6.119834773E-1,6.778432181E-1
1.135133050E1,2.038859779E-1,2.005594969E-1,9.006502815E-1,9.449680065E-1
1.136133850E1,3.508545738E-1,1.029028094E-1,1.089702312E0,1.149408130E0
1.137134750E1,5.029289585E-1,7.622956574E-2,1.228202970E0,1.329372416E0
1.138135550E1,6.562838835E-1,9.780579150E-2,1.352155756E0,1.506187139E0
1.139136350E1,7.864727247E-1,1.796182787E-1,1.479180669E0,1.684867212E0
1.140137250E1,9.080948102E-1,3.742089379E-1,1.517939815E0,1.807985009E0
1.141138050E1,8.955314827E-1,6.387404823E-1,1.462449592E0,1.829952144E0
1.142138850E1,6.849473731E-1,9.829602206E-1,1.361725455E0,1.813741965E0
1.143139650E1,4.666608725E-1,1.350650098E0,1.159205825E0,1.840050598E0
1.144140550E1,2.278097145E-1,1.790370655E0,7.358922628E-1,1.949066897E0
1.145141350E1,8.867214829E-2,2.516741019E0,-7.929262966E-2,2.519550641E0
1.146142150E1,-6.876055174E-1,3.175401796E0,-8.379538040E-1,3.355315856E0
1.147143050E1,-1.640094728E0,3.905629569E0,-2.124251200E0,4.738807467E0
1.148143850E1,-2.947382897E0,5.137214568E0,-2.859049303E0,6.576640661E0
1.149144650E1,-3.849481096E0,6.111520910E0,-2.570203282E0,7.666494469E0
1.150145550E1,-2.178728101E0,6.349518374E0,-1.661288692E0,6.915426222E0
1.151146350E1,1.901067218E-1,6.018377103E0,-1.206365958E0,6.141035934E0
1.152147150E1,2.343811371E0,5.592730209E0,-5.419807577E-1,6.088170996E0
1.153147950E1,3.103277268E0,4.929498664E0,5.722930160E-1,5.853016844E0
1.154148850E1,3.092209074E0,4.323718936E0,1.008445895E0,5.410477384E0
1.155149650E1,2.475782151E0,3.806363727E0,9.712719288E-1,4.643411595E0
1.156150450E1,1.421718326E0,3.275155295E0,4.308345437E-1,3.596323624E0
1.157151350E1,3.495953760E-1,2.766953902E0,-4.710864839E-1,2.828457760E0
1.158152150E1,-1.734520975E-1,2.569610374E0,-1.408212720E0,2.935310234E0
1.159152950E1,-7.760027003E-1,1.693194024E0,-1.693291965E0,2.517205568E0
1.160153850E1,-8.564828995E-1,3.903542697E-1,-1.724603512E0,1.964738325E0
1.161154650E1,-1.025083562E0,-8.372838593E-1,-1.431016276E0,1.949268620E0
1.162155450E1,-1.666073761E0,-1.929516261E0,-5.451897097E-1,2.606926658E0
1.163156250E1,-2.304159647E0,-2.210252194E0,2.622394359E-1,3.203612955E0
1.164157150E1,-2.486974599E0,-1.829155236E0,7.186573023E-1,3.169750756E0
1.165157950E1,-1.711154916E0,-9.088871080E-1,5.671138448E-1,2.018847452E0
1.166158750E1,-9.705354720E-1,-3.251753569E-2,-1.400098246E-1,9.811214214E-1
1.167159650E1,-6.051587534E-1,1.215834939E-1,-1.699055858E0,1.807703092E0
1.168160450E1,-5.204267514E-1,-4.370758617E-1,-2.464674488E0,2.556657905E0
1.169161250E1,-9.122849250E-1,-1.484848375E0,-2.582097103E0,3.115166758E0
1.170162150E1,-7.850319707E-1,-2.770606073E0,-2.195906051E0,3.621399811E0
1.171162950E1,-4.541006148E-1,-2.913454721E0,-1.290675207E0,3.218737061E0
1.172163750E1,-2.727074137E-1,-2.412402719E0,-1.617764942E0,2.917399462E0
1.173164550E1,-1.920839578E-1,-2.094652156E0,-2.152497491E0,3.009602856E0
1.174165450E1,-3.341946870E-1,-2.462774143E0,-2.386396642E0,3.445552423E0
1.175166250E1,-7.472338146E-1,-3.348313903E0,-3.696250132E0,5.042998057E0
1.176167050E1,-1.533271506E0,-4.644028825E0,-4.156723627E0,6.418432562E0
1.177167950E1,-2.364005315E0,-5.974200804E0,-4.040343570E0,7.589728094E0
1.178168750E1,-2.733342060E0,-6.872010362E0,-3.409752352E0,8.143837937E0
1.179169550E1,-3.044598997E0,-6.604234198E0,-2.844000324E0,7.808574149E0
1.180170350E1,-3.259786181E0,-5.976115767E0,-2.663428072E0,7.309857366E0
1.181171250E1,-3.235978366E0,-5.741383388E0,-2.439047603E0,7.027374503E0
1.182172050E1,-3.187194753E0,-5.977023255E0,-2.044000651E0,7.075376742E0
1.183172850E1,-3.261271666E0,-6.286735066E0,-1.764909539E0,7.298892817E0
1.184173750E1,-3.540418619E0,-6.905982685E0,-1.820375642E0,7.971256383E0
1.185174550E1,-3.609599074E0,-7.631936728E0,-2.085804442E0,8.696335082E0
1.186175350E1,-3.294215756E0,-8.027140678E0,-2.319723473E0,8.981534496E0
1.187176250E1,-2.745080053E0,-8.099451440E0,-2.191218338E0,8.828251012E0
1.188177050E1,-2.109638278E0,-8.002518053E0,-1.755438804E0,8.460049305E0
1.189177850E1,-1.611788503E0,-7.669313300E0,-1.388819844E0,7.958960311E0
1.190178650E1,-1.268571855E0,-7.228414528E0,-1.283302160E0,7.450242652E0
1.191179550E1,-1.082893229E0,-7.060799999E0,-1.220089958E0,7.246804390E0
1.192180350E1,-1.557551485E0,-7.091379767E0,-1.707129401E0,7.458412996E0
1.193181150E1,-2.568830648E0,-7.310223507E0,-2.191402818E0,8.052360209E0
1.194182050E1,-3.733244003E0,-7.829013038E0,-2.319862930E0,8.978436387E0
1.195182850E1,-4.935433588E0,-8.432737470E0,-2.676912628E0,1.013091443E1
1.196183650E1,-5.634264736E0,-8.824225515E0,-2.827961119E0,1.084478027E1
1.197184550E1,-5.753765452E0,-8.742885482E0,-2.201743619E0,1.069539800E1
1.198185350E1,-5.209045858E0,-8.049559488E0,-1.870127700E0,9.768671574E0
1.199186150E1,-4.757612743E0,-6.913855961E0,-1.678535347E0,8.558841287E0
1.200186950E1,-2.898771193E0,-5.125509612E0,-2.346644639E0,6.338806218E0
1.201187850E1,-1.561184652E0,-3.837611248E0,-2.015468431E0,4.607241106E0
1.202188650E1,-6.795809448E-1,-2.519365835E0,-1.298024426E0,2.914429941E0
1.203189450E1,3.406450430E-1,-1.183012179E0,-2.787483184E-1,1.262243038E0
1.204190350E1,1.252357526E0,6.348789811E-2,6.439409959E-1,1.409641831E0
1.205191150E1,1.911406850E0,1.470808040E0,1.280282073E0,2.730544749E0
1.206191950E1,2.364676867E0,3.218930808E0,1.501544076E0,4.267065367E0
1.207192850E1,2.881236270E0,5.365841285E0,1.308809177E0,6.229506931E0
1.208193650E1,3.134455207E0,7.649790031E0,9.540759985E-1,8.321920330E0
1.209194487E1,2.940688128E0,9.839030256E0,2.903586960E-1,1.027319187E1
1.210195287E1,3.059426951E0,1.167716799E1,-6.018351960E-1,1.208629600E1
1.211196187E1,3.510877608E0,1.366866181E1,-8.868553841E-1,1.414019412E1
1.212196987E1,2.755953828E0,1.569199255E1,-1.515499041E0,1.600408226E1
1.213197788E1,1.326925897E0,1.697796134E1,-1.085043250E0,1.706426741E1
1.214198687E1,7.302654871E-1,1.763768747E1,8.521392953E-1,1.767335420E1
1.215199487E1,6.210795522E-1,1.793411207E1,2.626963373E0,1.813612561E1
1.216200288E1,7.782088548E-1,1.787480961E1,3.424456930E0,1.821651264E1
1.217201187E1,1.133381013E0,1.755128200E1,3.368267527E0,1.790746432E1
1.218201987E1,1.614339351E0,1.704130539E1,2.778889824E0,1.734169570E1
1.219202787E1,2.183522087E0,1.581908997E1,2.223162847E0,1.612308374E1
1.220203587E1,1.803148137E0,1.313870877E1,1.916157274E0,1.339957724E1
1.221204488E1,1.494847260E0,1.026341064E1,1.417508916E0,1.046811816E1
1.222205287E1,1.472317645E0,7.560983689E0,1.237233556E0,7.801726762E0
1.223206087E1,1.915679702E0,5.405422842E0,1.319959817E0,5.884787060E0
1.224206988E1,1.930716987E0,3.580115658E0,5.178504682E-1,4.100373802E0
1.225207787E1,2.305602155E0,2.630486906E0,-4.282103133E-1,3.524007198E0
1.226208587E1,2.888049446E0,2.982992733E0,-3.778108227E-1,4.169150545E0
1.227209487E1,3.446650037E0,4.494166442E0,5.605304646E-1,5.691319960E0
1.228210287E1,3.674511353E0,6.166434451E0,1.679570596E0,7.372103154E0
1.229211088E1,3.469548611E0,7.487479511E0,2.177337048E0,8.534688841E0
1.230211887E1,3.064276340E0,8.424978215E0,2.196967467E0,9.230206577E0
1.231212787E1,2.813552410E0,9.154561624E0,2.069100555E0,9.798124963E0
1.232213588E1,2.846702907E0,9.676415681E0,1.925744369E0,1.026865275E1
1.233214387E1,3.075370554E0,1.006793238E1,1.702968814E0,1.066401750E1
1.234215287E1,3.146018953E0,1.023670641E1,1.241169609E0,1.078091348E1
1.235216087E1,2.478678862E0,9.875412802E0,1.059462705E0,1.023670299E1
1.236216887E1,1.551631471E0,9.635298645E0,1.451753573E0,9.866819581E0
1.237217788E1,3.245760173E-2,8.666469975E0,7.701319496E-1,8.700681499E0
1.238218587E1,-1.923493044E0,5.878958432E0,-3.621451087E-1,6.196218752E0
1.239219387E1,-3.414580691E0,2.418851028E0,-1.307070361E0,4.383906308E0
1.240220288E1,-4.243376147E0,-2.057594842E0,-3.935124679E0,6.142079770E0
1.241221087E1,-2.138962356E0,-6.090353404E0,-6.507655152E0,9.166086413E0
1.242221888E1,1.707929884E0,-1.902982532E1,-5.750464114E0,1.995292244E1
1.243222687E1,1.684575228E0,-4.019777392E1,-9.527281276E0,4.134571212E1
1.244223587E1,-5.175879282E0,-5.788960545E1,-1.398179541E1,5.977864793E1
1.245224388E1,-8.692485992E0,-4.906958583E1,-8.465469013E0,5.054747998E1
1.246225187E1,-3.632473674E0,-2.352456947E1,2.982820240E0,2.398952793E1
1.247226087E1,-6.223229626E0,-1.096207222E1,8.375842892E0,1.513440975E1
1.248226887E1,-8.565775659E0,-5.053283050E0,8.717917871E0,1.322536481E1
1.249227687E1,-1.069042345E1,-2.618800660E0,7.263503670E0,1.318718150E1
1.250228587E1,-1.217242598E1,-1.711950722E0,5.981789321E0,1.367042549E1
1.251229387E1,-8.842318554E0,-9.869597161E-1,3.832573872E0,9.687585322E0
1.252230187E1,-3.154470518E0,-1.169912077E0,2.048303032E-1,3.370657795E0
1.253230988E1,-9.515524864E-1,-1.276723750E0,-1.867279375E0,2.454018731E0
1.254231887E1,7.949921179E-1,-7.106051016E-1,-2.355802548E0,2.585880454E0
1.255232687E1,3.148493494E0,7.216048837E-1,-1.971314351E0,3.784151842E0
1.256233487E1,4.683215695E0,2.401922169E0,-1.455234128E0,5.460718425E0
1.257234387E1,5.427996018E0,3.800498970E0,-1.902155239E0,6.893847093E0
1.258235188E1,5.889660006E0,5.018495041E0,-2.440605302E0,8.113565289E0
1.259235987E1,5.668230042E0,6.033832464E0,-2.054793441E0,8.529838340E0
1.260236887E1,5.041975704E0,6.739187935E0,-8.920266616E-1,8.463680322E0
1.261237688E1,4.105939389E0,6.761689775E0,-1.576409340E-2,7.910716490E0
1.262238487E1,2.438412888E0,5.974114265E0,-3.222084066E-1,6.460628215E0
1.263239287E1,1.180965069E0,5.386117675E0,-1.011306499E0,5.606039862E0
1.264240187E1,-6.230369076E-2,5.050125554E0,-1.674440249E0,5.320845798E0
1.265240987E1,-1.616865640E0,4.651553607E0,-2.049610469E0,5.334051793E0
1.266241788E1,-2.877184442E0,3.899170734E0,-1.855948348E0,5.189052611E0
1.267242687E1,-3.522652439E0,3.016850451E0,-1.146937344E0,4.777649225E0
1.268243487E1,-3.529519116E0,2.263367717E0,-4.517946191E-1,4.217162196E0
1.269244288E1,-3.021398707E0,1.371077930E0,-3.093223858E-1,3.332324291E0
1.270245187E1,-1.812957718E0,3.928416753E-1,-1.026581326E0,2.120143743E0
1.271245987E1,-6.273734951E-1,-5.528080469E-1,-1.902691136E0,2.078323314E0
1.272246787E1,4.680851081E-1,-1.256329831E0,-2.330084009E0,2.688263343E0
1.273247587E1,1.051081452E0,-1.895346302E0,-1.608012371E0,2.698668859E0
1.274248488E1,1.499224924E0,-2.664502498E0,-3.504597406E-1,3.077348041E0
1.275249287E1,2.034469397E0,-3.418351852E0,4.677771060E-1,4.005372708E0
1.276250087E1,2.324888027E0,-3.649172444E0,9.134358032E-1,4.422208592E0
1.277250988E1,2.206423730E0,-3.118710701E0,1.038788266E0,3.959007853E0
1.278251787E1,1.535505728E0,-2.107165782E0,8.974600406E-1,2.757419083E0
1.279252587E1,6.599579814E-1,-9.593339610E-1,6.207464071E-1,1.319542454E0
1.280253487E1,-7.452422529E-2,1.164280039E-1,5.582361634E-1,5.750973434E-1
1.281254287E1,-4.164170641E-1,7.639434028E-1,2.610140057E-1,9.083727236E-1
1.282255088E1,-2.862340701E-1,9.710564590E-1,-3.884631340E-1,1.084335832E0
1.283255887E1,2.632942736E-2,9.019195658E-1,-1.014993461E0,1.358073587E0
1.284256787E1,2.344265699E-1,7.465531987E-1,-1.121978796E0,1.367893970E0
1.285257588E1,2.660491893E-1,4.648366874E-1,-1.023734902E0,1.155373734E0
1.286258387E1,2.103103137E-1,2.486183470E-1,-8.214975464E-1,8.836853113E-1
1.287259287E1,2.097916657E-1,1.463125384E-1,-3.851691051E-1,4.623582392E-1
1.288260087E1,2.843962902E-1,7.409942508E-2,-1.426954508E-2,2.942373100E-1
1.289260887E1,4.166904214E-1,1.243351936E-2,1.851871669E-1,4.561576334E-1
1.290261788E1,5.561280960E-1,6.952047050E-2,3.261167586E-1,6.484317198E-1
1.291262587E1,6.069313368E-1,1.977984416E-1,3.345063436E-1,7.206832626E-1
1.292263387E1,6.210690272E-1,2.244816256E-1,1.479113133E-1,6.767543818E-1
1.293264288E1,6.243507770E-1,2.685485816E-1,-1.513493299E-1,6.963037075E-1
1.294265087E1,5.355403420E-1,2.372373265E-1,-4.690237324E-1,7.503787501E-1
1.295265887E1,2.619669557E-1,1.485929525E-1,-6.764104383E-1,7.404307074E-1
1.296266687E1,-2.024805996E-1,1.252321565E-1,-7.978759646E-1,8.326389020E-1
1.297267587E1,-6.385981026E-1,1.812730408E-1,-9.728128164E-1,1.177723324E0
1.298268388E1,-8.983936948E-1,2.828637350E-1,-1.166775485E0,1.499495967E0
1.299269187E1,-9.596666676E-1,3.342128134E-1,-1.062656308E0,1.470338990E0
1.300270087E1,-8.009986702E-1,3.426883525E-1,-6.810626292E-1,1.105839266E0
1.301270888E1,-5.523452398E-1,3.568801296E-1,-3.077364747E-1,7.260512576E-1
1.302271687E1,-2.600762585E-1,3.519251990E-1,-3.981486082E-2,4.394044027E-1
1.303272587E1,-4.518114299E-2,2.738134146E-1,1.055154915E-1,2.968983675E-1
1.304273387E1,5.810319722E-2,1.917477429E-1,4.152458668E-2,2.046154191E-1
1.305274187E1,3.254238635E-2,7.007478654E-2,-2.066544883E-1,2.206253842E-1
1.306274988E1,-9.530903041E-2,-3.696902096E-2,-4.499935305E-1,4.614593127E-1
1.307275887E1,-3.623116082E-1,-9.363321841E-2,-6.198364341E-1,7.240401136E-1
1.308276687E1,-5.492514780E-1,-2.073077685E-1,-6.293486845E-1,8.606587382E-1
1.309277512E1,-5.831580198E-1,-2.913041908E-1,-4.909661400E-1,8.160754611E-1
1.310278413E1,-4.910228580E-1,-3.626782286E-1,-2.870268063E-1,6.745541729E-1
1.311279212E1,-2.868342867E-1,-3.651369828E-1,-8.068441316E-2,4.712843078E-1
1.312280012E1,1.437976509E-2,-3.031933343E-1,3.519336775E-2,3.055675846E-1
1.313280913E1,2.837794089E-1,-1.332907891E-1,2.031322718E-2,3.141811812E-1
1.314281712E1,3.974478194E-1,9.480324626E-2,-1.947697301E-1,4.526451949E-1
1.315282513E1,3.706231329E-1,2.600987703E-1,-4.115362470E-1,6.118618794E-1
1.316283312E1,2.341991132E-1,3.815273130E-1,-5.317153859E-1,6.950781012E-1
1.317284212E1,9.917667121E-2,4.923589468E-1,-6.066110556E-1,7.875470255E-1
1.318285013E1,-9.882057577E-2,5.663542914E-1,-6.151678710E-1,8.419941800E-1
1.319285812E1,-2.730822203E-1,6.086051023E-1,-5.565331618E-1,8.687365710E-1
1.320286712E1,-3.503297862E-1,6.688483804E-1,-4.098394581E-1,8.591027276E-1
1.321287512E1,-3.438270977E-1,6.403548986E-1,-2.728392684E-1,7.763457578E-1
1.322288312E1,-2.519705558E-1,5.405300635E-1,-1.997617174E-1,6.289408989E-1
1.323289213E1,-1.965915763E-1,4.039016837E-1,-1.680535094E-1,4.796110925E-1
1.324290012E1,-2.191574433E-1,3.062765712E-1,-1.544157560E-1,4.070375274E-1
1.325290812E1,-2.804690078E-1,1.872869021E-1,-1.727910697E-1,3.789406310E-1
1.326291713E1,-3.643821073E-1,4.924583495E-2,-2.274121039E-1,4.323375271E-1
1.327292512E1,-4.501715782E-1,-1.671637094E-1,-2.774106216E-1,5.545762424E-1
1.328293312E1,-5.460416490E-1,-3.499798304E-1,-2.241975971E-1,6.862302286E-1
1.329294112E1,-5.770389086E-1,-3.968253833E-1,-6.689097762E-2,7.035045769E-1
1.330295012E1,-4.206092253E-1,-2.716791809E-1,9.751065329E-2,5.101274598E-1
1.331295813E1,-4.436510557E-1,-2.521190751E-1,1.367290981E-1,5.282850873E-1
1.332296612E1,-3.984824842E-1,-2.027861166E-1,1.520065570E-1,4.722462204E-1
1.333297512E1,-3.501137316E-1,-1.140429246E-1,1.401098851E-1,3.939748642E-1
1.334298313E1,-2.859300148E-1,-2.686795592E-2,6.741254926E-2,2.949954444E-1
1.335299112E1,-3.162741405E-1,5.881831169E-2,1.347556628E-2,3.219790624E-1
1.336300012E1,-2.886752826E-1,1.827500474E-1,-1.193994127E-2,3.418677534E-1
1.337300812E1,-2.612053558E-1,2.473898470E-1,-2.261600688E-2,3.604739354E-1
1.338301612E1,-2.227309692E-1,2.595321751E-1,-9.051636010E-3,3.421227362E-1
1.339302413E1,-1.004412778E-1,2.558244556E-1,-1.957413912E-2,2.755317573E-1
1.340303312E1,-3.517480284E-2,2.249002862E-1,-5.033626758E-2,2.331333209E-1
1.341304112E1,-5.419491827E-3,1.812923366E-1,-6.911635481E-2,1.940962460E-1
1.342304913E1,-2.789545789E-2,1.076033860E-1,-4.714361474E-2,1.207442159E-1
1.343305812E1,-1.181638961E-1,5.316697776E-2,4.249040052E-2,1.363630008E-1
1.344306612E1,-1.410139377E-1,-9.022253752E-3,1.515678696E-1,2.072176412E-1
1.345307412E1,-9.214890271E-2,-5.632155061E-2,2.837537543E-1,3.036111500E-1
1.346308312E1,-2.854610682E-2,-8.956881881E-2,3.685805543E-1,3.803801763E-1
1.347309113E1,6.665431157E-2,-6.638519347E-2,3.549179502E-1,3.671737225E-1
1.348309912E1,1.520596205E-1,2.454310298E-2,2.582528043E-1,3.006975274E-1
1.349310812E1,1.611197349E-1,1.012176418E-1,2.082425921E-1,2.820807635E-1
1.350311613E1,1.801601695E-1,1.879365277E-1,2.277104580E-1,3.458755236E-1
1.351312412E1,2.213989735E-1,2.980220568E-1,2.343542106E-1,4.390404854E-1
1.352313212E1,2.790814635E-1,3.787528092E-1,2.779742932E-1,5.464520669E-1
1.353314112E1,3.519295844E-1,4.672398931E-1,3.252386530E-1,6.692889746E-1
1.354314912E1,4.302714568E-1,5.050696242E-1,3.758941054E-1,7.625780159E-1
1.355315713E1,5.368825704E-1,5.495195729E-1,4.284875444E-1,8.796682506E-1
1.356316612E1,5.998703854E-1,5.502060360E-1,4.432154381E-1,9.268285094E-1
1.357317412E1,6.524608277E-1,5.175259477E-1,4.053346901E-1,9.261935268E-1
1.358318213E1,6.656253952E-1,5.026851296E-1,4.025551430E-1,9.261750102E-1
1.359319112E1,6.414898431E-1,5.359072548E-1,4.319325046E-1,9.408886720E-1
1.360319912E1,5.073263571E-1,5.356248343E-1,5.464385287E-1,9.180790061E-1
1.361320712E1,3.650457662E-1,5.046252358E-1,7.229637766E-1,9.542440266E-1
1.362321512E1,3.858179998E-1,5.197221619E-1,8.771897905E-1,1.090150716E0
1.363322413E1,5.778183424E-1,5.867388546E-1,1.009189514E0,1.302535987E0
1.364323212E1,7.480842921E-1,6.474072254E-1,1.111169633E0,1.487771547E0
1.365324012E1,8.470343837E-1,6.684531087E-1,1.235876710E0,1.640636476E0
1.366324913E1,8.452708635E-1,6.880664241E-1,1.325338086E0,1.715936852E0
1.367325712E1,7.109304991E-1,6.833155614E-1,1.405270839E0,1.716720264E0
1.368326513E1,4.284015173E-1,6.890160120E-1,1.459129543E0,1.669529858E0
1.369327412E1,1.988927481E-1,6.914022607E-1,1.471016786E0,1.637524289E0
1.370328212E1,6.453045666E-2,7.488762975E-1,1.359252083E0,1.553237301E0
1.371329013E1,-1.348964345E-1,8.842609745E-1,1.200502224E0,1.497103908E0
1.372329912E1,-1.536814919E-1,1.061256192E0,1.070693014E0,1.515343603E0
1.373330712E1,1.401054266E-1,1.324352245E0,7.807006457E-1,1.543707193E0
1.374331513E1,7.138377348E-1,1.798514072E0,3.312894979E-1,1.963153053E0
1.375332312E1,9.005027854E-1,2.514162397E0,2.200753100E-1,2.679617691E0
1.376333212E1,9.942240044E-1,3.480629377E0,2.543854558E-1,3.628770341E0
1.377334012E1,1.659776602E0,4.144481311E0,9.165218174E-3,4.464489636E0
1.378334812E1,2.840249043E0,4.559647071E0,-1.113280624E-1,5.373061509E0
1.379335713E1,4.047859289E0,4.910914459E0,-1.621959150E-1,6.366203983E0
1.380336512E1,3.723335019E0,4.966160706E0,2.695010930E-2,6.206988169E0
1.381337312E1,1.920016875E0,5.035745496E0,5.812948045E-1,5.420618152E0
1.382338213E1,-5.643644840E-2,5.289314681E0,7.194902381E-1,5.338323807E0
1.383339012E1,-1.221605849E0,4.410346606E0,1.137628430E0,4.715684094E0
1.384339813E1,-1.812837119E0,3.276414785E0,1.472671840E0,4.023684209E0
1.385340712E1,-7.833763316E-1,2.943631032E0,1.250238787E0,3.292679631E0
1.386341512E1,1.030963230E0,2.649410834E0,3.738095731E-2,2.843177850E0
1.387342313E1,1.869363907E0,2.224409473E0,-1.239041077E0,3.158756355E0
1.388343112E1,1.492420519E0,1.881697147E0,-2.006940413E0,3.129842325E0
1.389344012E1,-4.223373699E-1,8.106860447E-1,-2.173942739E0,2.358306119E0
1.390344812E1,-2.074110888E0,-7.689872110E-1,-1.895121769E0,2.912861793E0
1.391345612E1,-2.426062399E0,-2.155089562E0,-6.502899027E-1,3.309541772E0
1.392346513E1,-2.058026074E0,-2.581779014E0,5.641142231E-1,3.349519228E0
1.393347312E1,-1.152999883E0,-1.895360920E0,5.783603793E-1,2.292662748E0
1.394348112E1,-3.237840119E-1,-8.545945412E-1,2.802371657E-1,9.558769718E-1
1.395349013E1,4.215284076E-1,-2.120902061E-2,-1.095537248E0,1.174026355E0
1.396349812E1,1.080446169E0,1.510324109E-1,-2.520601351E0,2.746562558E0
1.397350612E1,-2.702790651E-1,-7.272451079E-1,-3.141796094E0,3.236173499E0
1.398351412E1,-1.229931407E0,-2.250938875E0,-3.289951674E0,4.171718963E0
1.399352312E1,-1.783931994E0,-3.213023366E0,-2.545361971E0,4.470436228E0
1.400353113E1,-2.640512542E0,-3.149702114E0,-2.650282069E0,4.890493322E0
1.401353912E1,-3.120283018E0,-3.009218665E0,-2.203521172E0,4.862825171E0
1.402354812E1,-3.258448046E0,-3.307369945E0,-2.122070920E0,5.104837373E0
1.403355613E1,-2.966903242E0,-3.836226043E0,-2.662142269E0,5.532282220E0
1.404356412E1,-2.413172797E0,-4.418943182E0,-3.190170109E0,5.960507287E0
1.405357312E1,-1.989097927E0,-5.266135733E0,-3.696590147E0,6.734498856E0
1.406358112E1,-1.929993979E0,-6.116779895E0,-4.271115923E0,7.705991453E0
1.407358912E1,-2.523329077E0,-7.014139802E0,-4.571188306E0,8.744204328E0
1.408359713E1,-3.702091793E0,-7.600379305E0,-4.337137712E0,9.501684732E0
1.409360567E1,-4.631914271E0,-7.629380910E0,-3.870474354E0,9.728445642E0
1.410361367E1,-4.724645557E0,-7.330057847E0,-3.523874214E0,9.405833996E0
1.411362167E1,-4.109649448E0,-7.085387540E0,-3.302308595E0,8.831601058E0
1.412363067E1,-3.426340318E0,-6.995502972E0,-3.067028916E0,8.371591019E0
1.413363867E1,-2.969062619E0,-7.023998793E0,-2.752049642E0,8.107136924E0
1.414364667E1,-2.768770047E0,-7.321201655E0,-2.536529751E0,8.228004887E0
1.415365567E1,-2.857459737E0,-7.643234133E0,-2.481680237E0,8.528941374E0
1.416366367E1,-3.108855804E0,-7.893781477E0,-2.505751178E0,8.846217235E0
1.417367167E1,-3.375976203E0,-8.108260270E0,-2.360333848E0,9.094628954E0
1.418368067E1,-3.496854231E0,-8.250018412E0,-2.053831574E0,9.192878627E0
1.419368867E1,-3.553690629E0,-7.989279372E0,-2.059176222E0,8.983179208E0
1.420369667E1,-3.673973702E0,-7.456495115E0,-2.328607733E0,8.632486093E0
1.421370467E1,-3.660103522E0,-6.951735978E0,-2.502336696E0,8.245282278E0
1.422371367E1,-3.762215203E0,-6.500575343E0,-2.429640018E0,7.893978315E0
1.423372167E1,-3.615661467E0,-6.193391869E0,-1.651546061E0,7.359260498E0
1.424372967E1,-3.567357326E0,-6.052630677E0,-4.979392371E-1,7.043317392E0
1.425373867E1,-3.829644124E0,-5.651252652E0,4.946773678E-2,6.826805820E0
1.426374667E1,-2.180617628E0,-5.103698328E0,-1.295611426E-1,5.551541764E0
1.427375467E1,-1.708950224E0,-4.766709257E0,-2.825620186E-1,5.071673225E0
1.428376367E1,-2.686611405E-1,-3.650741837E0,-8.085423093E-1,3.748844547E0
1.429377167E1,1.026695055E0,-2.469729406E0,-2.822516777E-1,2.689485468E0
1.430377967E1,1.692135678E0,-1.098953776E0,1.013094139E0,2.257738313E0
1.431378867E1,2.265343491E0,7.813236666E-1,1.179433683E0,2.670826018E0
1.432379667E1,2.261034093E0,3.137139956E0,6.935126670E-1,3.928725250E0
1.433380467E1,2.494959849E0,5.651947886E0,-3.586448193E-1,6.188535017E0
1.434381267E1,2.932227207E0,8.310431260E0,-1.641596439E0,8.964154337E0
1.435382167E1,2.930822706E0,1.099993294E1,-2.813900027E0,1.172630717E1
1.436382967E1,2.605721608E0,1.341700934E1,-3.291438621E0,1.405843138E1
1.437383767E1,1.980917234E0,1.509990116E1,-2.981049703E0,1.551830227E1
1.438384667E1,1.799349639E0,1.648373947E1,-2.003577533E0,1.670226478E1
1.439385467E1,2.046876165E0,1.723121360E1,-4.547847390E-2,1.735242036E1
1.440386267E1,2.246076477E0,1.728813741E1,2.467219781E0,1.760714992E1
1.441387167E1,2.218253963E0,1.705516563E1,4.250141083E0,1.771617974E1
1.442387967E1,2.064691316E0,1.662665828E1,4.479005781E0,1.734272783E1
1.443388767E1,1.875947726E0,1.614027987E1,4.047361983E0,1.674541588E1
1.444389667E1,1.680948200E0,1.529805511E1,3.325000470E0,1.574521213E1
1.445390467E1,8.446104205E-1,1.359657266E1,2.344295959E0,1.382301987E1
1.446391267E1,9.857718542E-2,1.164081351E1,1.734299219E0,1.176970902E1
1.447392067E1,-2.950901167E-1,9.646084419E0,1.320288430E0,9.740491996E0
1.448392967E1,-3.600575066E-1,7.566305825E0,7.847958894E-1,7.615413963E0
1.449393767E1,1.564815773E-1,5.681478664E0,3.536524665E-1,5.694625217E0
1.450394567E1,1.448722230E0,4.163795249E0,6.120456040E-1,4.450908536E0
1.451395467E1,2.704343379E0,3.129217563E0,9.186279845E-1,4.236667681E0
1.452396267E1,3.740191373E0,2.970093775E0,1.607551464E0,5.039316447E0
1.453397067E1,4.395399076E0,3.750129885E0,2.540148593E0,6.311526128E0
1.454397967E1,4.189408978E0,4.988233361E0,2.854275051E0,7.111997308E0
1.455398767E1,3.374673736E0,6.300188339E0,2.469717711E0,7.561765767E0
1.456399567E1,2.709906127E0,7.596396766E0,2.237804421E0,8.369982298E0
1.457400467E1,2.429232175E0,8.762960728E0,1.995922505E0,9.309906354E0
1.458401267E1,2.219742664E0,9.591583107E0,1.510485346E0,9.960285637E0
1.459402067E1,1.492769159E0,9.586298393E0,1.434320684E0,9.807280585E0
1.460402867E1,1.016192432E0,9.292978082E0,1.473073837E0,9.463722060E0
1.461403767E1,-1.145323366E-3,8.446122331E0,9.497538829E-1,8.499353868E0
1.462404567E1,-1.216444512E0,5.951783164E0,-2.483299331E-1,6.079895381E0
1.463405367E1,-1.875005009E0,2.225626279E0,-2.272967091E0,3.692619058E0
1.464406267E1,-1.608952019E0,-1.734916247E0,-4.751722258E0,5.308250691E0
1.465407067E1,-4.855384621E-1,-5.457149650E0,-7.890635090E0,9.606162190E0
1.466407867E1,-2.879136828E-1,-1.236165708E1,-9.199236106E0,1.541166458E1
1.467408767E1,-4.459561450E0,-3.555765981E1,-1.250334681E1,3.795482237E1
1.468409567E1,-1.568016013E1,-6.996998573E1,-1.958526403E1,7.433201794E1
1.469410367E1,-1.393877978E1,-5.654166787E1,-1.570485409E1,6.031494201E1
1.470411267E1,-7.503414928E0,-2.064814166E1,-9.360994649E-1,2.198916259E1
1.471412067E1,-7.403868420E0,-7.022235273E0,8.322377121E0,1.316780228E1
1.472412867E1,-6.372053543E0,1.715167276E0,2.320206044E1,2.412219878E1
1.473413667E1,-4.687943754E-1,5.552756889E0,2.789443463E1,2.844560354E1
1.474414567E1,3.621475353E0,3.364687276E0,1.709978456E1,1.779996731E1
1.475415367E1,2.755422608E0,2.213375777E-1,5.316364485E0,5.992084396E0
1.476416167E1,2.449261520E0,3.298180461E-1,-1.133615925E0,2.718960647E0
1.477417067E1,3.322929678E0,1.011667711E0,-5.151094104E0,6.212817692E0
1.478417867E1,4.657285048E0,1.655264305E0,-7.479268266E0,8.964912589E0
1.479418667E1,3.762015520E0,2.976674232E0,-7.884772671E0,9.229463166E0
1.480419567E1,2.383461048E0,4.708676226E0,-6.182127793E0,8.128420659E0
1.481420367E1,1.177489922E0,6.167723177E0,-3.997003423E0,7.443341190E0
1.482421167E1,3.969999227E-1,7.164847108E0,-2.498218210E0,7.598271991E0
1.483422067E1,7.518598393E-2,7.091224816E0,-1.453174592E0,7.238980503E0
1.484422867E1,3.689473209E-1,5.346626165E0,-9.661071564E-1,5.445722772E0
1.485423667E1,1.245684829E0,3.417528564E0,-3.367528439E-1,3.653030887E0
1.486424467E1,1.695442278E0,1.945950446E0,7.894511501E-1,2.698977728E0
1.487425367E1,1.051082914E0,1.208371553E0,1.993332188E0,2.557011990E0
1.488426167E1,-3.756906223E-1,1.313878713E0,3.251327891E0,3.526833392E0
1.489426967E1,-1.112716222E0,1.368691097E0,3.758742249E0,4.152059249E0
1.490427867E1,-1.345712270E0,9.078977591E-1,2.190777312E0,2.726669229E0
1.491428667E1,-1.284600096E0,2.275601846E-1,9.940734386E-2,1.308381773E0
1.492429467E1,-6.545886295E-1,-3.379918689E-1,-1.699976209E0,1.852739563E0
1.493430367E1,-4.237914263E-1,-6.159994912E-1,-2.575065534E0,2.681420715E0
1.494431167E1,-7.646542780E-1,-5.455335259E-1,-2.510870415E0,2.680815778E0
1.495431967E1,-4.422456774E-1,-6.355935109E-1,-2.782583510E0,2.888309426E0
1.496432867E1,-4.154008180E-1,-9.305872947E-1,-2.255886350E0,2.475393661E0
1.497433667E1,1.669286513E-1,-1.516798730E0,-8.271215446E-1,1.735705509E0
1.498434467E1,5.235137889E-1,-2.212069509E0,5.336179237E-1,2.334966014E0
1.499435367E1,6.272381321E-1,-2.488248707E0,1.486221886E0,2.965411404E0
1.500436167E1,4.186745279E-1,-2.103124187E0,1.565554861E0,2.655067180E0
1.501436967E1,5.684034482E-2,-1.238848411E0,1.064204943E0,1.634169015E0
1.502437767E1,-2.924186701E-1,-1.577257186E-1,5.572091000E-1,6.487434485E-1
1.503438667E1,-5.704409105E-1,7.353551960E-1,3.109524433E-1,9.812448821E-1
1.504439467E1,-6.962428781E-1,1.251551487E0,2.854259849E-2,1.432462896E0
1.505440267E1,-6.493796374E-1,1.405300514E0,-4.007599747E-1,1.599116008E0
1.506441167E1,-5.889439858E-1,1.274716401E0,-7.212531736E-1,1.578595281E0
1.507441967E1,-6.536524902E-1,9.533271164E-1,-5.677903676E-1,1.287819890E0
1.508442767E1,-7.465074442E-1,6.120748401E-1,-2.257083714E-1,9.913895516E-1
1.509443725E1,-5.705935228E-1,3.604404992E-1,-3.230937481E-2,6.756761187E-1
1.510444525E1,-2.081278405E-1,1.314483315E-1,6.857855715E-2,2.555364560E-1
1.511445325E1,1.153734586E-1,-3.823552787E-2,1.300933854E-1,1.780372980E-1
1.512446225E1,3.721613891E-1,-5.810436666E-2,3.099375129E-2,3.779428920E-1
1.513447025E1,5.651899646E-1,-4.394767284E-3,-3.375819790E-1,6.583468711E-1
1.514447825E1,6.987862708E-1,7.302412212E-2,-7.819086074E-1,1.051197339E0
1.515448625E1,7.714809023E-1,9.805371344E-2,-9.588147283E-1,1.234553764E0
1.516449525E1,9.020882580E-1,-5.478841066E-2,-8.012020071E-1,1.207762249E0
1.517450325E1,1.109538991E0,-3.674308455E-1,-4.453134191E-1,1.250754268E0
1.518451125E1,1.195439705E0,-7.292980653E-1,-2.154008266E-1,1.416809540E0
1.519452025E1,9.912246752E-1,-8.201392382E-1,-2.036409795E-1,1.302545345E0
1.520452825E1,6.876468864E-1,-6.329260111E-1,-2.830030449E-1,9.764959290E-1
1.521453625E1,4.997645916E-1,-3.581922448E-1,-3.239043184E-1,6.949678688E-1
1.522454525E1,3.297220056E-1,-1.031852299E-1,-3.484250557E-1,4.906768918E-1
1.523455325E1,2.224485487E-1,1.554534906E-1,-3.141801064E-1,4.151605518E-1
1.524456125E1,1.464517021E-1,3.375024569E-1,-1.802438577E-1,4.096875123E-1
1.525457025E1,2.013371766E-2,4.956462514E-1,-8.764376923E-2,5.037380306E-1
1.526457825E1,-1.643428664E-1,5.790947896E-1,-1.249993642E-1,6.148041917E-1
1.527458625E1,-3.854984495E-1,6.029718947E-1,-2.305463576E-1,7.518881456E-1
1.528459525E1,-5.837113126E-1,5.665548509E-1,-2.719820666E-1,8.577164684E-1
1.529460325E1,-6.440744586E-1,5.015215337E-1,-2.480389611E-1,8.531582991E-1
1.530461125E1,-5.831309764E-1,4.064066309E-1,-1.918155706E-1,7.362073746E-1
1.531461925E1,-4.621189016E-1,2.821825343E-1,-2.365128565E-1,5.908630918E-1
1.532462825E1,-4.369564323E-1,1.799036229E-1,-2.845782848E-1,5.516167487E-1
1.533463625E1,-4.147264878E-1,1.566317046E-1,-2.637187815E-1,5.158286017E-1
1.534464425E1,-3.508295770E-1,1.287662137E-1,-1.930481637E-1,4.206301503E-1
1.535465325E1,-2.861074778E-1,2.504420936E-2,-1.031998479E-1,3.051801270E-1
1.536466125E1,-1.644114250E-1,-9.112710178E-2,3.562474608E-2,1.913227323E-1
1.537466925E1,1.018862709E-2,-1.762748408E-1,1.773833267E-1,2.502827845E-1
1.538467825E1,1.841555719E-1,-1.847176355E-1,2.019290610E-1,3.298624337E-1
1.539468625E1,2.701080340E-1,-1.574187398E-1,1.125683299E-1,3.322809633E-1
1.540469425E1,1.982194412E-1,-7.380355597E-2,1.893803515E-2,2.123595086E-1
1.541470325E1,-6.555605829E-3,5.922060013E-2,-5.270080850E-2,7.954514858E-2
1.542471125E1,-1.165116191E-1,1.131751978E-1,-1.836018406E-2,1.634646113E-1
1.543471925E1,-7.440070286E-2,1.252882898E-1,1.070169103E-1,1.807905950E-1
1.544472825E1,1.543387190E-2,1.270845544E-1,2.503557010E-1,2.811879539E-1
1.545473625E1,1.123897706E-1,1.250000221E-1,3.288240194E-1,3.692989328E-1
1.546474425E1,2.201590714E-1,9.603466988E-2,2.803471664E-1,3.691709743E-1
1.547475325E1,2.970265684E-1,5.513573527E-2,2.342581701E-1,3.822847393E-1
1.548476125E1,4.336765829E-1,-3.288123250E-2,2.526850855E-1,5.029973225E-1
1.549476925E1,5.347063829E-1,-1.180763340E-1,2.724767411E-1,6.116342951E-1
1.550477725E1,5.522570930E-1,-1.760859758E-1,2.817013085E-1,6.444763726E-1
1.551478625E1,5.271409629E-1,-1.735231411E-1,2.934952886E-1,6.277956353E-1
1.552479425E1,4.557499681E-1,-1.379007339E-1,3.409792113E-1,5.856547348E-1
1.553480225E1,4.318079589E-1,-1.384223056E-1,4.458316286E-1,6.359124854E-1
1.554481125E1,4.252397816E-1,-1.243732005E-1,5.487167501E-1,7.052571423E-1
1.555481925E1,4.642367631E-1,-8.021502793E-2,6.465430069E-1,7.999800514E-1
1.556482725E1,4.964030273E-1,-6.841476202E-2,7.286706591E-1,8.843401351E-1
1.557483625E1,4.910852771E-1,-4.886752009E-2,7.753373603E-1,9.190760611E-1
1.558484425E1,5.514659648E-1,-1.297555625E-2,7.843303049E-1,9.588832580E-1
1.559485225E1,6.058512099E-1,7.865674496E-3,7.638160066E-1,9.749525369E-1
1.560486125E1,6.356844351E-1,2.508338571E-2,7.649117748E-1,9.948939141E-1
1.561486925E1,6.641340628E-1,3.157145619E-2,7.688058011E-1,1.016431587E0
1.562487725E1,7.238224402E-1,-3.817354739E-2,8.132822084E-1,1.089405386E0
1.563488625E1,7.884806585E-1,-1.270465475E-1,9.334203438E-1,1.228460871E0
1.564489425E1,9.107599711E-1,-2.609419388E-1,1.117223986E0,1.464842605E0
1.565490225E1,1.108142968E0,-3.645464140E-1,1.320582107E0,1.762047680E0
1.566491125E1,1.327512958E0,-3.682500404E-1,1.473334769E0,2.017080585E0
1.567491925E1,1.413842419E0,-3.225125349E-1,1.619256713E0,2.173696626E0
1.568492725E1,1.493316605E0,-1.941801846E-1,1.735987895E0,2.298119753E0
1.569493525E1,1.598691617E0,-2.584469318E-2,1.886218068E0,2.472711353E0
1.570494425E1,1.745584491E0,1.283802974E-1,2.085248079E0,2.722463272E0
1.571495225E1,1.895995636E0,3.071478063E-1,2.179367201E0,2.904957938E0
1.572496025E1,2.102572502E0,5.546826643E-1,2.105698131E0,3.026953684E0
1.573496925E1,2.264774557E0,9.002659732E-1,1.716660947E0,2.981041332E0
1.574497725E1,2.252958796E0,1.457727234E0,1.074778317E0,2.890664362E0
1.575498525E1,1.997131124E0,2.240789863E0,4.582359119E-1,3.036388000E0
1.576499425E1,1.199842951E0,2.811136633E0,-2.265002306E-1,3.064867800E0
1.577500225E1,-3.015315557E-1,3.654077089E0,-7.964374034E-1,3.752001224E0
1.578501025E1,-1.958982574E0,4.749755255E0,-2.094648063E0,5.548453678E0
1.579501925E1,-3.579758393E0,6.167335507E0,-3.232365371E0,7.829360338E0
1.580502725E1,-4.946549730E0,7.064702430E0,-2.840745471E0,9.080099641E0
1.581503525E1,-3.939722052E0,6.092047343E0,-1.158205659E0,7.346828637E0
1.582504425E1,-1.575486942E0,4.149080731E0,5.073079383E-1,4.467033844E0
1.583505225E1,2.827964920E-1,2.767854958E0,1.335224266E0,3.086068497E0
1.584506025E1,1.860426146E0,1.914866647E0,1.802973451E0,3.221585477E0
1.585506825E1,2.518471795E0,1.354399917E0,1.505403969E0,3.231615761E0
1.586507725E1,1.913474717E0,8.769022536E-1,8.942515272E-1,2.286925633E0
1.587508525E1,7.203430545E-1,3.259653157E-1,6.567621857E-2,7.933857000E-1
1.588509325E1,-2.329375765E-1,-2.174146807E-1,-6.818806547E-1,7.526554890E-1
1.589510225E1,-7.709404734E-1,-3.516123730E-1,-7.759573844E-1,1.148951843E0
1.590511025E1,-5.847937784E-1,2.809154427E-1,-7.818882152E-1,1.015995290E0
1.591511825E1,1.424463594E-1,1.056110058E0,-5.302711236E-1,1.190313775E0
1.592512725E1,3.770699805E-1,1.986843533E0,-2.059088221E-1,2.032763498E0
1.593513525E1,-7.787234098E-1,2.501590299E0,8.690164062E-1,2.760353906E0
1.594514325E1,-1.660538202E0,2.859437558E0,7.155796203E-1,3.383167814E0
1.595515225E1,-2.462096743E0,2.983651714E0,-5.078195697E-1,3.901535421E0
1.596516025E1,-2.955526022E0,2.692600123E0,-1.600410406E0,4.306569744E0
1.597516825E1,-2.228108714E0,2.848753526E0,-2.306637112E0,4.289573389E0
1.598517725E1,-1.527297991E0,3.251857064E0,-2.445447673E0,4.345966848E0
1.599518525E1,-6.716065121E-1,3.610375584E0,-1.770374932E0,4.076775020E0
1.600519325E1,1.297292501E0,3.371087639E0,-1.132394003E0,3.785434701E0
1.601520125E1,2.111188082E0,1.846682265E0,-8.738158008E-1,2.937840118E0
1.602521025E1,1.942571340E0,3.704298824E-1,-2.898684070E-1,1.998705931E0
1.603521825E1,8.380001432E-1,-1.195812319E0,-1.238193523E0,1.914506344E0
1.604522625E1,-3.067227137E-1,-2.344855099E0,-1.821935972E0,2.985276359E0
1.605523525E1,-1.082430130E0,-2.255401470E0,-1.339285449E0,2.837635687E0
1.606524325E1,-1.478524319E0,-1.308284681E0,-1.265986508E-1,1.978299822E0
1.607525125E1,-1.262953557E0,-9.936348975E-2,-9.666628611E-1,1.593537536E0
1.608526025E1,-7.647395012E-1,-2.612138343E-1,-1.232230532E0,1.473584492E0
1.609526817E1,-8.620482793E-1,-1.407758099E0,-2.067799988E0,2.645884897E0
1.610527617E1,-1.701848195E0,-2.948680687E0,-2.776514392E0,4.393180766E0
1.611528517E1,-2.857365305E0,-4.436766665E0,-3.041407587E0,6.090943690E0
1.612529317E1,-3.298859030E0,-5.323492241E0,-2.513836707E0,6.748438007E0
1.613530117E1,-2.781268471E0,-5.051675650E0,-3.203347394E0,6.596689754E0
1.614530917E1,-2.255147993E0,-4.249942278E0,-2.970158972E0,5.654161844E0
1.615531817E1,-1.790121856E0,-4.095350082E0,-2.759351352E0,5.252661082E0
1.616532617E1,-1.885066020E0,-4.629226014E0,-2.874205871E0,5.765784142E0
1.617533417E1,-2.258610130E0,-5.465620512E0,-3.081784950E0,6.668712452E0
1.618534317E1,-2.653377585E0,-6.257939283E0,-3.392973767E0,7.597005177E0
1.619535117E1,-2.969829189E0,-6.873286809E0,-3.622541301E0,8.317737820E0
1.620535917E1,-3.074460728E0,-7.473033380E0,-3.743087499E0,8.905573574E0
1.621536817E1,-3.102821185E0,-7.878766996E0,-3.750915166E0,9.261308400E0
1.622537617E1,-3.030199352E0,-7.792331700E0,-3.535643782E0,9.077627355E0
1.623538417E1,-2.971406183E0,-7.433450069E0,-3.146650452E0,8.601560538E0
1.624539317E1,-3.004170471E0,-7.055674914E0,-2.850067395E0,8.181104624E0
1.625540117E1,-3.042697775E0,-6.684710011E0,-2.727064489E0,7.834554130E0
1.626540917E1,-3.100063638E0,-6.264999796E0,-2.768720346E0,7.518406038E0
1.627541717E1,-3.192570391E0,-6.007865564E0,-2.592435565E0,7.280637094E0
1.628542617E1,-3.018945508E0,-5.660017628E0,-2.358637571E0,6.834691121E0
1.629543417E1,-2.751021409E0,-5.511697156E0,-2.052608337E0,6.493082882E0
1.630544217E1,-2.110641660E0,-5.355219818E0,-1.896430961E0,6.060498156E0
1.631545117E1,-2.186752527E0,-5.173685406E0,-1.960177014E0,5.949050447E0
1.632545917E1,-2.221064281E0,-5.292507260E0,-2.392780632E0,6.218453087E0
1.633546717E1,-1.608464946E0,-5.616822492E0,-2.583403956E0,6.388257226E0
1.634547617E1,-1.477478544E0,-6.074419742E0,-2.291766474E0,6.658356525E0
1.635548417E1,-2.291385235E0,-6.296506932E0,-1.511026944E0,6.868744301E0
1.636549217E1,-3.031656185E0,-6.368724139E0,-1.270284212E0,7.166952516E0
1.637550117E1,-3.373069552E0,-6.427313824E0,-1.477111924E0,7.407416610E0
1.638550917E1,-3.589635510E0,-6.639110500E0,-1.526375885E0,7.700200950E0
1.639551717E1,-2.755033768E0,-6.599497953E0,-1.307853449E0,7.270080119E0
1.640552617E1,-1.184131629E0,-5.893048468E0,-7.596147090E-2,6.011319165E0
1.641553417E1,8.289802283E-2,-4.763990886E0,1.277533590E0,4.933008546E0
