"Time (s)"	"Linear Acceleration x (m/s^2)"	"Linear Acceleration y (m/s^2)"	"Linear Acceleration z (m/s^2)"	"Absolute acceleration (m/s^2)"
1.878833328E-2	-4.230226636E-2	2.789127713E-1	4.482417047E-2	2.856414221E-1
2.879633335E-2	-6.476595327E-2	4.063680393E-1	1.322664154E0	1.385196765E0
3.880433331E-2	4.532586157E-2	4.054997277E-1	1.811206039E0	1.856596827E0
4.881233326E-2	2.044791048E-1	2.086169600E-1	1.221117314E0	1.255571677E0
5.882133334E-2	3.733370449E-1	1.453939408E-2	2.750027382E-1	4.639164247E-1
6.882933329E-2	3.462694066E-1	-1.593152842E-1	-4.909474289E-1	6.215410201E-1
7.883733325E-2	2.864690550E-1	-1.482090828E-1	-8.527976918E-1	9.117534507E-1
8.884633332E-2	-6.699198827E-2	-1.663863221E-1	-8.441894209E-1	8.630342479E-1
9.885433328E-2	-2.235163233E-1	-2.003957748E-1	-9.325642383E-1	9.796908043E-1
1.088623333E-1	-6.788500428E-2	-8.831517577E-2	-9.170410502E-1	9.237814849E-1
1.188713333E-1	-1.005105673E-1	-3.311921418E-2	-7.787614167E-1	7.859189529E-1
1.288793333E-1	-1.906308516E-1	1.244465831E-1	-2.553420603E-1	3.420915687E-1
1.388873333E-1	-3.341738563E-1	2.854435265E-1	5.227545279E-1	6.829512937E-1
1.488963333E-1	-2.647373664E-1	4.004141119E-1	9.765774000E-1	1.088173126E0
1.589043332E-1	-4.208401904E-2	4.366305962E-1	7.252564698E-1	8.475932334E-1
1.689123333E-1	1.444063461E-1	3.225192592E-1	5.158472121E-2	3.571174160E-1
1.789203333E-1	4.543426895E-1	2.723346537E-1	-4.718404824E-1	7.093848631E-1
1.889293334E-1	3.976461131E-1	1.763727817E-1	-6.071087998E-1	7.468673806E-1
1.989373333E-1	2.889471050E-1	1.033390117E-1	-4.916531879E-1	5.795621088E-1
2.089453333E-1	2.422776264E-1	4.959374428E-2	-2.145770270E-1	3.274160781E-1
2.189543333E-1	1.421483707E-1	9.019534796E-2	-1.128828371E-1	2.026916253E-1
2.289623333E-1	-1.739181206E-2	2.041081721E-1	-1.632823277E-1	2.619613322E-1
2.389703332E-1	-3.095380750E-1	2.083588055E-1	-1.895339870E-1	4.185096700E-1
2.489793333E-1	-4.968154388E-1	2.775535861E-1	-2.126398444E-1	6.075173057E-1
2.589873333E-1	-5.105612195E-1	-9.763242155E-2	-1.957770592E-1	5.554579241E-1
2.689953333E-1	1.091813595E0	-1.251350050E0	8.757257938E-2	1.663010172E0
2.790043333E-1	2.135441346E-1	-1.019093674E0	6.595214868E-1	1.232526513E0
2.890123333E-1	3.571605767E-1	-2.526286599E-1	6.404706734E-1	7.756207842E-1
2.990203333E-1	1.178171196E0	1.177506441E-1	4.125625795E-1	1.253858231E0
3.090283333E-1	1.696012090E0	4.349743724E-3	3.613199204E-1	1.734078433E0
3.190373332E-1	1.859747284E0	-3.654001075E-1	3.099071074E-1	1.920473799E0
3.290453333E-1	1.394520734E0	-7.698797885E-1	3.061461782E-1	1.622075352E0
3.390533333E-1	1.162813704E0	-1.134990459E0	3.993607360E-1	1.673268672E0
3.490623333E-1	1.372901385E0	-1.408527300E0	5.629254842E-1	2.045896495E0
3.590703333E-1	1.891789733E0	-1.496173262E0	6.770795059E-1	2.505162566E0
3.690783333E-1	2.375195131E0	-1.064091507E0	8.438596380E-1	2.736044908E0
3.790873333E-1	2.032222312E0	-2.319298089E-1	1.295254161E0	2.421033313E0
3.890953333E-1	1.846052520E0	4.745576835E-1	2.048546276E0	2.798152381E0
3.991033332E-1	1.457165025E0	8.803977191E-1	2.823598804E0	3.297141225E0
4.091113333E-1	7.002996764E-1	-2.328150773E-1	2.746176406E0	2.843608157E0
4.191203333E-1	9.489006279E-1	-9.428962684E-1	1.217176291E0	1.808586160E0
4.291283333E-1	1.187219251E0	-1.277517217E0	-8.673069727E-1	1.947757987E0
4.391363333E-1	1.400011269E0	-1.048324490E0	-2.018751204E0	2.671024563E0
4.491453333E-1	2.578084159E0	5.639160025E-1	-2.772638565E0	3.827798819E0
4.591533333E-1	1.630546955E0	4.788308287E-1	-4.037329915E0	4.380410389E0
4.691613333E-1	1.570041722E0	1.646833205E0	-4.111567335E0	4.699157005E0
4.791703332E-1	1.859248809E0	8.424159604E-1	-3.025349963E0	3.649549724E0
4.891783333E-1	-1.464715096E0	-3.582980794E-1	-3.699007094E-2	1.508355426E0
4.991863333E-1	6.851954412E-1	3.796947956E-2	6.080583876E-1	9.168802958E-1
5.091943333E-1	4.658406544E0	-4.926226562E-1	-1.220221521E0	4.840699244E0
5.192033333E-1	4.819622465E0	-2.593928944E0	-8.135751539E0	9.805492399E0
5.292113333E-1	-7.377598634E-1	-2.334632412E0	2.910638702E-1	2.465667514E0
5.392193333E-1	1.468700412E0	-6.633829880E-1	-5.462125046E0	5.694907191E0
5.492283333E-1	8.774058451E-1	-5.286508602E-1	-8.896760809E-1	1.356774218E0
5.592363334E-1	1.882667200E0	2.091098219E0	-4.403321761E-1	2.847985248E0
5.692443333E-1	3.001707916E0	3.078222826E0	-2.630233136E0	5.040221477E0
5.792533333E-1	3.511253730E-1	2.245933658E0	-3.521298516E-1	2.300326598E0
5.892613333E-1	-3.001920170E0	1.290003362E0	2.099409451E0	3.883703571E0
5.992693333E-1	-5.047107806E0	7.305651569E-1	3.187334794E0	6.013827877E0
6.092783333E-1	-4.272942300E0	-6.137062132E-2	2.805566576E0	5.112045194E0
6.192863333E-1	-2.263346667E0	-3.827665719E0	3.000754820E0	5.364540286E0
6.292943333E-1	-3.103889179E-1	-4.732475563E0	4.590312209E0	6.600275177E0
6.393023334E-1	3.032977071E-1	-5.561982626E-1	5.341237371E0	5.378676664E0
6.493113333E-1	8.667197661E-1	1.478902341E0	3.967550413E0	4.322014758E0
6.593193333E-1	4.641221942E-1	5.444278175E-1	3.105181999E0	3.186528880E0
6.693273333E-1	3.630493075E-1	4.496298337E-1	2.446494325E0	2.513823038E0
6.793363333E-1	-4.985454471E-1	1.609193509E0	1.004151115E0	1.961216656E0
6.893443333E-1	1.731902007E0	-3.002264571E-1	-1.077769548E1	1.092008884E1
6.993523333E-1	2.454764042E0	-4.474649021E0	-1.268805334E1	1.367607575E1
7.093613333E-1	2.338572339E-1	-3.899073086E0	-1.741627681E0	4.276765964E0
7.193693334E-1	-3.906064894E0	5.243958414E-2	4.981359959E-2	3.906734475E0
7.293773333E-1	-4.413552196E-1	1.346222001E0	4.276869875E-1	1.479873057E0
7.393853333E-1	3.310925052E0	5.962134490E0	2.811071144E0	7.376407890E0
7.493943333E-1	-1.598727431E-1	3.033712066E0	6.051536078E0	6.771267024E0
7.594023333E-1	-2.223354343E0	-7.894086117E-1	2.444884586E0	3.397636109E0
7.694103332E-1	-3.019892465E-1	1.175776250E0	-7.365404266E-1	1.419908129E0
7.794193333E-1	1.660138398E0	2.212154878E0	1.955250442E-1	2.772709640E0
7.894273333E-1	-1.269871691E0	1.780417525E0	-5.327550209E-1	2.250841750E0
7.994353333E-1	1.588897531E-1	2.582181888E0	-2.115557122E0	3.341929262E0
8.094443333E-1	7.769046333E-1	2.603968028E0	-5.827802896E-1	2.779183903E0
8.194523333E-1	-3.784721428E-1	1.521261910E0	-8.692178428E-1	1.792489504E0
8.294603333E-1	-6.677600674E-1	1.913990734E0	1.126364354E0	2.319043056E0
8.394693333E-1	-1.017122578E0	3.471135253E-1	9.306519649E0	9.368368808E0
8.494773332E-1	1.736724937E0	-2.186429468E0	5.898513860E0	6.526036552E0
8.594853333E-1	5.573847211E0	4.997200066E-1	-1.247122221E0	5.733481198E0
8.694933333E-1	3.443021840E0	4.631480116E-1	6.442374498E-1	3.533262991E0
8.795023334E-1	-4.890464991E-4	-3.877064166E0	-4.243483443E0	5.747936893E0
8.895103333E-1	3.253110123E-1	-2.080535808E0	-3.182736543E0	3.816316078E0
8.995183333E-1	2.196741910E0	-1.269415315E0	7.677277207E-1	2.650753877E0
9.095273333E-1	2.056973283E0	-1.799851331E0	3.098034947E0	4.131394974E0
9.195353333E-1	-8.345377144E-1	-2.709779243E0	2.483973223E0	3.769546354E0
9.295433332E-1	-1.102318703E0	-2.016309407E0	4.679485171E0	5.213270722E0
9.395523333E-1	-2.636867680E-1	-2.282451274E0	5.450939323E0	5.915391283E0
9.495603333E-1	-6.855510981E-1	-2.646809408E0	6.042036107E0	6.631876105E0
9.595683333E-1	-5.434428540E-1	-2.310493936E0	6.673183980E0	7.082732297E0
9.695763333E-1	-6.760255453E-1	-2.052692537E0	6.767832860E0	7.104513974E0
9.795853333E-1	-9.418312711E-1	-2.180888062E0	6.514716834E0	6.934324359E0
9.895933333E-1	-1.248854751E0	-2.485248501E0	5.727871057E0	6.367464578E0
9.996017083E-1	-1.151079584E0	-2.548504849E0	5.121120107E0	5.834872092E0
1.009610708E0	-1.289031554E0	-2.675168989E0	4.955981873E0	5.777533020E0
1.019618708E0	-1.677795966E0	-3.127686762E0	3.988320308E0	5.338925235E0
1.029626708E0	-1.837650948E0	-3.408712133E0	3.475129486E0	5.203153309E0
1.039635708E0	-1.481517216E0	-4.298327402E0	2.547589175E0	5.211594989E0
1.049643708E0	-1.511417684E0	-4.130065586E0	1.260570817E0	4.575026114E0
1.059651708E0	-1.441066178E0	-3.870988324E0	5.098046994E-1	4.161865347E0
1.069660708E0	-1.314908700E0	-3.339633127E0	8.705334663E-1	3.693232030E0
1.079668708E0	-2.359342745E0	-2.838750694E0	-9.143793976E-1	3.802774431E0
1.089676708E0	-2.981751954E0	-1.895877230E0	-4.305082691E0	5.569464261E0
1.099684708E0	-3.840676358E0	-1.090850120E0	-6.349132458E0	7.500148788E0
1.109693708E0	-3.345727387E0	-7.291729349E-1	-7.171588363E0	7.947154495E0
1.119701708E0	-2.264904803E0	-1.223785983E0	-5.874168978E0	6.413525324E0
1.129709708E0	-2.117119205E0	4.000255644E-2	-3.903200635E0	4.440582071E0
1.139718708E0	-1.423605369E0	-3.045130509E-1	-1.170515510E0	1.868016864E0
1.149726708E0	-1.319224237E0	-1.968120164E-1	-1.216069998E0	1.804969196E0
1.159734708E0	-2.249336592E0	4.720311016E-1	-1.964138795E0	3.023271352E0
1.169743708E0	-2.134527536E0	8.328674573E-1	-2.736486693E0	3.569066464E0
1.179751708E0	-1.357738677E0	1.913115406E0	-2.559943757E0	3.472286986E0
1.189759708E0	-1.128088698E0	6.135307968E-1	-9.508899969E-1	1.597872315E0
1.199767708E0	-6.160480962E-1	1.866730614E0	-1.857137087E0	2.704284859E0
1.209776708E0	-6.646972959E-1	2.619908708E0	1.635220635E-1	2.707855904E0
1.219784708E0	3.248187498E-1	1.454553366E0	1.453147695E0	2.081554933E0
1.229792708E0	-4.673906051E-1	2.069264131E0	2.303298352E0	3.131372115E0
1.239801708E0	-1.050313274E0	1.949192142E0	1.801249985E0	2.854296671E0
1.249809708E0	-1.014154970E0	1.472302589E0	8.200930452E-1	1.966910730E0
1.259817708E0	-8.772263356E-1	8.216957670E-1	-6.011259288E-2	1.203463128E0
1.269826708E0	3.856004834E-2	4.303550720E-2	-4.317584038E-2	7.213241574E-2
1.279834708E0	1.197877044E0	-5.997331220E-1	5.785001278E-2	1.340871304E0
1.289842708E0	2.301524453E0	-9.662915629E-1	5.525744507E-1	2.556574411E0
1.299851708E0	2.397520824E0	-6.472943741E-1	9.571310225E-1	2.661427418E0
1.309859708E0	1.939122944E0	-3.735259831E-1	1.510184653E0	2.486036431E0
1.319867708E0	2.249369482E0	-2.061394948E-1	2.850667904E0	3.637095553E0
1.329875708E0	2.106762471E0	-8.030565977E-3	3.097206981E0	3.745824833E0
1.339884708E0	1.281963440E0	-3.340350580E-1	1.884123741E0	2.303243790E0
1.349892708E0	1.613882976E0	-7.581277621E-1	1.362189578E0	2.243866397E0
1.359900708E0	2.222044420E0	-7.674862307E-1	1.424550717E0	2.748792693E0
1.369909708E0	2.053090440E0	-1.135164998E0	2.354578434E0	3.323826037E0
1.379917708E0	1.246211810E0	-2.155932730E-1	3.105545695E0	3.353198235E0
1.389925708E0	1.665429690E0	3.618450004E-1	1.937635120E0	2.580507259E0
1.399934708E0	8.463172958E-1	2.965064585E-1	5.458089298E-1	1.049798282E0
1.409942708E0	1.207878926E0	-4.983184290E-1	8.498343229E-1	1.558688914E0
1.419950708E0	2.314014837E0	-1.176728761E0	2.124646326E0	3.354620285E0
1.429959708E0	3.685740346E0	-1.741776200E0	3.616378335E0	5.449464056E0
1.439967708E0	4.002113305E0	-1.394948019E0	3.300325220E0	5.371679201E0
1.449975708E0	3.634050960E0	-8.373499328E-1	2.521625491E0	4.501785913E0
1.459983708E0	5.743500665E-2	1.281621963E-1	-7.070789382E-1	7.208917765E-1
1.469992708E0	-7.517445029E-1	-1.520162049E0	-1.371876368E0	2.181297142E0
1.480000708E0	-7.372979334E-1	-3.205676925E0	1.931030105E0	3.814295486E0
1.490008708E0	2.139655690E0	3.970551789E-2	1.626625520E0	2.688050145E0
1.500017708E0	3.328142179E0	1.412106673E0	3.268657869E0	4.873879346E0
1.510025708E0	2.209734131E0	2.025491289E0	3.524549860E0	4.626877090E0
1.520033708E0	1.296059323E0	2.801505684E0	2.246885585E0	3.817944303E0
1.530042708E0	1.289662177E0	4.379345838E0	2.978591534E0	5.451046324E0
1.540050708E0	-1.922919725E0	3.409814333E0	3.150628898E0	5.025029005E0
1.550058708E0	-5.336365471E0	-3.483490419E-1	2.346760706E0	5.839985386E0
1.560066708E0	-3.336412480E0	-1.195193684E0	2.595357126E0	4.392722936E0
1.570075708E0	-3.123860052E0	-1.059439462E0	6.226436824E-2	3.299210580E0
1.580083708E0	-4.214167843E0	-1.642833710E-2	-2.483631161E0	4.891615709E0
1.590091708E0	-3.719941880E0	-1.632670079E0	-4.842854038E0	6.321140278E0
1.600100708E0	-2.782968256E0	-3.858261275E0	-5.512622185E0	7.281489939E0
1.610108708E0	4.876987744E0	-4.994411529E0	3.939064533E0	8.015321913E0
1.620116708E0	1.117285850E1	-2.626175753E0	8.074740522E0	1.403321063E1
1.630125708E0	6.610646839E0	2.490419778E0	1.030578074E1	1.249447714E1
1.640133708E0	3.102547243E-1	5.150724560E0	1.166894446E1	1.275893751E1
1.650141708E0	-1.838917455E0	2.244535589E-1	-1.843177883E0	2.613293232E0
1.660149708E0	-9.148129687E-1	-5.213217262E0	-1.705778168E1	1.786007930E1
1.670158708E0	-5.702549690E-1	-4.295131314E0	-1.697772979E1	1.752189066E1
1.680166708E0	-2.995329773E-1	-3.395659393E-1	-9.477763546E0	9.488573489E0
1.690174708E0	1.355225252E0	2.149740529E0	-3.694922229E0	4.484469880E0
1.700183708E0	1.487613231E0	4.263602543E-1	3.982070804E-1	1.597918981E0
1.710191708E0	9.425588840E-1	-1.536683357E0	4.688481697E-1	1.862694713E0
1.720199708E0	1.181062425E0	-3.230863221E0	-4.837660249E-1	3.473818529E0
1.730208708E0	6.400730628E-1	-3.415318317E0	9.419689000E-2	3.476056068E0
1.740216708E0	-2.162852910E-1	-1.740188096E0	1.523750485E0	2.323112024E0
1.750224708E0	1.972771624E-1	1.940686782E0	1.638330769E0	2.547412643E0
1.760232708E0	-4.140296459E-2	3.502423119E0	-6.771736461E-1	3.567526602E0
1.770241708E0	-8.657767564E-1	1.872481935E0	-2.671022436E0	3.374925013E0
1.780249708E0	-2.432790790E0	-8.138762856E-1	-2.377809421E0	3.497834084E0
1.790257708E0	-5.223478541E0	-8.746931756E-1	-1.780073708E0	5.587349875E0
1.800266708E0	-5.971450274E0	-1.828085196E-1	5.629307467E-1	6.000710654E0
1.810274708E0	-4.700790379E0	-2.838378811E-1	9.859037089E-1	4.811444716E0
1.820282708E0	-3.119015634E0	-1.576660185E0	-8.219167918E-1	3.590217692E0
1.830291708E0	-2.385404955E0	-1.645236915E0	-3.028749242E0	4.191692173E0
1.840299708E0	-3.357291426E0	3.789492756E-1	-3.820839095E0	5.100374462E0
1.850307708E0	-3.096290722E0	2.931636053E0	-4.806844545E0	6.425516374E0
1.860315708E0	-3.459049058E0	3.735860925E0	-4.357232253E0	6.701279739E0
1.870324708E0	-4.161045012E0	3.799192702E0	-2.822102209E0	6.301779245E0
1.880332708E0	-2.917777568E0	3.044237639E0	-4.450473708E-1	4.240150457E0
1.890340708E0	-2.336366696E0	3.658286499E0	1.015401158E0	4.457881667E0
1.900349708E0	-3.005024457E0	5.523617874E0	-3.258390158E-1	6.296562354E0
1.910357708E0	-3.579260503E0	5.450142347E0	-2.096545485E0	6.849135735E0
1.920365708E0	-2.488706252E0	4.841436673E0	-2.420474215E0	5.957504787E0
1.930374708E0	-1.770278160E0	4.074342790E0	-1.366906527E0	4.647858366E0
1.940382708E0	-4.833173972E-1	1.124417231E0	1.059853445E0	1.619011779E0
1.950390708E0	-6.604479781E-1	-2.394109704E0	4.980880487E-1	2.532991219E0
1.960398708E0	-2.004426987E0	-3.596915293E0	1.032822644E0	4.245262040E0
1.970407708E0	3.892766279E-1	-5.434783466E0	-2.045385271E-2	5.448745358E0
1.980415708E0	9.037631929E-1	-4.803391764E0	-2.446035903E0	5.465569686E0
1.990423708E0	1.113254019E0	-6.258596510E0	-2.099403019E0	6.694539403E0
2.000432625E0	1.060630540E0	-9.284942254E0	2.413742316E-1	9.348441117E0
2.010440625E0	2.913895601E-1	-9.804848018E0	5.964563423E-1	9.827294272E0
2.020448625E0	-9.929987204E-1	-7.718830445E0	-1.214640353E0	7.876657990E0
2.030457625E0	-3.444545917E0	-4.606799603E0	-2.040902503E0	6.103505729E0
2.040465625E0	-3.328030789E0	-4.568002743E0	2.598034859E-2	5.651823862E0
2.050473625E0	-1.560549937E0	-4.067993299E0	3.822260553E-1	4.373783527E0
2.060481625E0	-2.084693179E-1	-2.701964439E0	2.746945900E-1	2.723881129E0
2.070490625E0	-2.477599758E-1	-1.642475275E0	5.635335946E-1	1.754046792E0
2.080498625E0	-2.236293939E-1	-2.682054670E0	8.701650918E-2	2.692767950E0
2.090506625E0	-4.372799295E-1	-1.790744292E0	-7.241121697E-1	1.980484105E0
2.100515625E0	-7.826474762E-1	-8.756263912E-1	-1.126363769E0	1.627253511E0
2.110523625E0	-1.267429016E0	-1.280645478E0	-1.500225967E-1	1.808019892E0
2.120531625E0	-3.218354273E-1	-1.531841277E0	1.119835353E0	1.924616055E0
2.130539625E0	1.146803004E0	-4.345755923E-1	3.386703798E0	3.601912782E0
2.140548625E0	2.945688082E0	1.915185320E0	4.678299356E0	5.850769005E0
2.150556625E0	2.934299752E0	2.215911714E0	3.993361192E0	5.428380364E0
2.160564625E0	2.329319339E0	1.607721764E0	2.875687263E0	4.034857505E0
2.170573625E0	2.005401718E0	1.036941131E0	2.945407123E0	3.711105776E0
2.180581625E0	1.515489247E0	-1.093814074E0	1.580431055E0	2.447631346E0
2.190589625E0	-1.760855080E0	-7.335378814E-1	-3.995826963E0	4.427789692E0
2.200598625E0	-2.324154347E0	7.749542946E-1	-4.401871651E0	5.037729809E0
2.210606625E0	-1.081446043E0	6.550068516E-1	-1.628983410E0	2.062073343E0
2.220614625E0	1.640067977E0	1.591113918E0	5.079102015E-1	2.340820207E0
2.230622625E0	2.582658436E0	2.828364869E0	-1.643175187E0	4.167708858E0
2.240631625E0	-1.970153533E-1	1.718237649E0	-2.907452554E0	3.382962610E0
2.250639625E0	-3.656467138E-1	1.047382504E0	-1.780223689E0	2.097594816E0
2.260647625E0	-1.407661620E-1	2.011877802E0	-9.285436928E-2	2.018932722E0
2.270656625E0	1.653710700E0	1.440981978E0	5.528706121E-1	2.262046431E0
2.280664625E0	2.367352553E0	7.637188697E-1	7.781421965E-1	2.606363348E0
2.290672625E0	2.266239284E0	9.688421184E-1	9.340997171E-1	2.635723397E0
2.300681625E0	2.293929066E0	9.686748880E-1	-7.190234841E-1	2.591801761E0
2.310689625E0	-6.334361807E-3	1.551815951E0	-3.015168791E0	3.391078842E0
2.320697625E0	-2.347758680E0	2.156482369E-1	-1.766959573E0	2.946289380E0
2.330705625E0	-2.239340338E0	-1.812286019E-1	8.193747148E-1	2.391414619E0
2.340714625E0	-2.091383563E0	-7.703127748E-1	3.904301374E-1	2.262675997E0
2.350722625E0	-1.712268226E0	-1.545164158E0	7.051740615E-1	2.411776360E0
2.360730625E0	-2.613706858E0	-2.726148523E0	9.001711021E-1	3.882480821E0
2.370739625E0	-1.962955903E0	-2.939476000E0	1.120454427E0	3.707982356E0
2.380747625E0	-1.931131847E0	-1.446206465E0	4.008086528E-1	2.445696409E0
2.390755625E0	-7.388512462E-1	-1.994137934E0	-5.634868169E-1	2.200001059E0
2.400763625E0	4.290713889E-1	-2.338831297E0	4.026591504E-1	2.411714843E0
2.410772625E0	-3.137952134E-2	-9.789116085E-1	1.627301166E0	1.899305583E0
2.420780625E0	-1.021753280E0	5.410270768E-1	2.298669696E0	2.573047306E0
2.430788625E0	-5.417367826E-1	1.102605363E0	3.410292343E0	3.624818780E0
2.440797625E0	1.207549873E0	8.989842635E-1	4.256254932E0	4.514648984E0
2.450805625E0	3.072352514E0	4.851329577E-1	2.566965678E0	4.032867063E0
2.460813625E0	2.386352496E0	6.553641164E-1	4.120176190E-1	2.508772385E0
2.470822625E0	3.368236829E0	1.999998599E0	-8.146533805E-1	4.001084086E0
2.480830625E0	2.137400858E0	3.083957775E0	-7.445512582E-1	3.825393386E0
2.490838625E0	-1.165435157E0	2.225909284E0	2.432896332E-1	2.524302099E0
2.500846625E0	-4.454018582E0	-1.456830856E0	2.669384923E0	5.393167302E0
2.510855625E0	-4.453628281E0	-4.089613963E0	8.722769306E0	1.061350327E1
2.520863625E0	8.373955411E0	4.371777787E0	5.894409115E0	1.113461401E1
2.530871625E0	4.187020390E0	3.824465538E0	-2.167162454E0	6.070771738E0
2.540880625E0	-1.265325188E0	2.668579177E0	1.174760442E0	3.178431178E0
2.550888625E0	-2.025254770E0	5.521979485E0	2.013904886E0	6.216890477E0
2.560896625E0	-3.006346512E0	4.540856459E0	-1.509483571E-1	5.447961283E0
2.570904625E0	-3.497964032E0	3.474979212E0	-1.579053012E0	5.177319897E0
2.580913625E0	-4.587318727E0	9.141098410E-1	-1.320008349E0	4.860196698E0
2.590921625E0	-5.944626757E0	-1.840707580E0	-1.172132850E-1	6.224189154E0
2.600929625E0	-6.987251966E0	-4.060383732E0	3.171610169E-1	8.087582902E0
2.610938625E0	-6.836279197E0	-5.371751651E0	-5.118882085E-1	8.709331696E0
2.620946625E0	-5.830405492E0	-6.858567029E0	2.614684805E-2	9.001902774E0
2.630954625E0	-6.536810539E0	-6.528053164E0	1.521494629E0	9.362708798E0
2.640963625E0	-4.789665425E0	-6.837000743E0	4.070104728E0	9.287153845E0
2.650971625E0	-1.677192826E0	-6.212151491E0	4.683049634E0	7.958313628E0
2.660979625E0	2.612673948E0	-5.483185548E0	4.457309688E0	7.533856818E0
2.670987625E0	5.810999168E0	-2.618405973E0	1.746407049E0	6.608607929E0
2.680996625E0	5.826094340E0	2.582779473E-1	-3.571786884E0	6.838694634E0
2.691004625E0	5.141395912E0	1.709659199E0	-6.476860206E0	8.444323811E0
2.701012625E0	3.625241252E0	5.702734462E0	-3.219137215E0	7.485078416E0
2.711021625E0	-6.299382301E-1	6.503981931E0	5.439191097E-1	6.557015414E0
2.721029625E0	-3.522632266E0	4.198292652E0	3.266231275E0	6.379879780E0
2.731037625E0	4.251521611E0	5.908769292E0	8.922365036E-1	7.333830958E0
2.741045625E0	4.786285150E0	7.374559836E0	-2.794594275E0	9.225097045E0
2.751054625E0	2.247687823E0	4.580342122E0	-1.720778118E0	5.384488075E0
2.761062625E0	1.624090168E0	1.799635568E0	-6.393292969E-1	2.507009972E0
2.771070625E0	1.776634815E0	9.865270221E-1	3.475409567E-2	2.032455332E0
2.781079625E0	2.596307591E0	1.702218032E-1	-7.395809788E-1	2.704952605E0
2.791087625E0	4.724444632E-1	-9.070949364E-1	-1.555492680E0	1.861607497E0
2.801095625E0	1.677501851E0	1.681852764E0	-2.947182338E-1	2.393637404E0
2.811104625E0	4.659411680E0	1.714001926E0	-2.398424950E0	5.513652333E0
2.821112625E0	-5.098589323E-1	-1.029657839E0	-5.333723699E0	5.456075503E0
2.831120625E0	-3.058130916E0	-3.488162929E0	-2.960180406E0	5.502918622E0
2.841128625E0	-1.229290406E0	-4.304506740E0	-6.568153954E-1	4.524526455E0
2.851137625E0	-3.072934604E0	-3.752789199E0	2.664322988E0	5.533983271E0
2.861145625E0	-4.520611644E0	-1.213834607E0	5.317927446E0	7.084467264E0
2.871153625E0	-3.880962505E0	2.900788482E0	6.784290433E0	8.336848353E0
2.881162625E0	-2.151898590E0	4.145828510E0	5.945972201E0	7.561292680E0
2.891170625E0	-8.830986942E-1	2.917272953E0	2.713982806E0	4.081182115E0
2.901178625E0	5.417810753E-2	1.371675516E0	2.506046462E-1	1.395432434E0
2.911187625E0	1.511868943E0	2.476067787E-1	-3.693330032E0	3.998467650E0
2.921195625E0	1.207157964E0	-2.808958545E0	-5.208566971E0	6.039590082E0
2.931203625E0	-2.877561003E-2	-3.699237474E0	-2.878494219E0	4.687314252E0
2.941211625E0	-1.283633844E0	-3.879391358E0	-3.417695210E0	5.327103688E0
2.951220625E0	-1.089436556E0	-4.670929525E0	-3.846793715E0	6.148355596E0
2.961228625E0	1.205999046E0	-3.073136333E0	-2.631815978E0	4.221972994E0
2.971236625E0	3.203798507E0	-1.639998395E0	-4.327699721E-2	3.599415578E0
2.981245625E0	2.093037155E-1	2.136788946E-1	-3.234463352E-1	4.405499371E-1
2.991253625E0	-4.208193450E0	5.261909950E0	-9.493487439E-1	6.804252456E0
3.001261125E0	-3.563244102E0	6.703105937E0	1.498052996E-2	7.591347848E0
3.011269125E0	-2.711709993E0	5.736172349E0	1.584307759E0	6.539654072E0
3.021278125E0	-1.153006315E0	2.485233883E0	-3.148216921E-1	2.757702615E0
3.031286125E0	3.223950058E-2	-6.274062395E-2	-1.015195336E0	1.017643032E0
3.041294125E0	9.627651072E-1	3.946695149E-2	-1.155437880E0	1.504496921E0
3.051303125E0	1.390118803E0	3.047165340E-1	-2.296176444E0	2.701427162E0
3.061311125E0	1.162747776E0	-3.215775651E-1	-2.569922031E0	2.838995203E0
3.071319125E0	1.297546855E0	-1.610071176E0	-3.308863909E0	3.901863324E0
3.081327125E0	6.193078458E-3	-2.849018989E0	-2.953707538E0	4.103819657E0
3.091336125E0	7.786085120E-1	-2.166500988E0	-2.786256731E0	3.614302743E0
3.101344125E0	1.673467857E0	-1.630631740E0	-2.521086670E0	3.437343820E0
3.111352125E0	-1.085791109E0	-4.468140485E0	-5.861143720E0	7.449579011E0
3.121361125E0	-1.701337441E0	-6.106550192E0	-6.754320529E0	9.263117733E0
3.131369125E0	4.097757965E-1	-3.399374129E0	-2.346251999E0	4.150729950E0
3.141377125E0	-8.349321091E-1	-8.978025413E-1	2.771691901E0	3.030748591E0
3.151386125E0	-3.414114960E0	3.192868599E0	1.277059731E1	1.359921860E1
3.161394125E0	8.456009388E-2	3.569673116E0	9.150035879E0	9.822060535E0
3.171402125E0	-4.762475288E-1	9.456105459E-1	9.145065746E-1	1.399040131E0
3.181410125E0	-3.174820875E0	1.263215513E0	3.818071023E-1	3.438164872E0
3.191419125E0	-2.235673842E0	2.660870792E0	5.379417935E-1	3.516795739E0
3.201427125E0	-1.603634853E0	2.913335438E0	2.276750239E0	4.030230734E0
3.211435125E0	-1.148856546E0	9.505824333E-1	3.884481359E0	4.160850124E0
3.221444125E0	-8.260683149E-1	-2.460262179E0	4.148313577E0	4.893238639E0
3.231452125E0	-1.272772787E0	-4.157251630E0	3.697444133E0	5.707344812E0
3.241460125E0	-3.372625456E0	-4.488473593E0	2.625290485E0	6.197834121E0
3.251468125E0	-5.113369038E0	-3.440382407E0	3.284949381E0	6.983814607E0
3.261477125E0	-6.975195592E0	-1.757660161E0	4.581505718E0	8.528359598E0
3.271485125E0	-5.415370710E0	-3.127069296E0	4.130912263E0	7.494613962E0
3.281493125E0	-2.595253923E0	-4.465930238E0	1.416444576E0	5.355949127E0
3.291502125E0	3.424170124E0	-1.709969101E0	-3.440382991E0	5.146374500E0
3.301510125E0	3.346606224E0	-2.886304929E0	-5.401242083E0	6.978821204E0
3.311518125E0	-4.375183790E0	-3.227347875E0	-3.492864091E0	6.462051304E0
3.321527125E0	-1.565393624E0	-3.437376353E0	-5.378140903E0	6.571941339E0
3.331535125E0	-3.480099034E-1	-1.486263986E0	-4.900778310E0	5.133002978E0
3.341543125E0	-9.917462468E-2	2.266719925E-1	-1.746299167E0	1.763739374E0
3.351551125E0	3.275360240E-1	2.008612132E-1	4.532422435E-1	5.941831412E-1
3.361560125E0	4.552126090E-1	7.823334807E-1	1.365339327E0	1.638113449E0
3.371568125E0	1.436216059E0	7.271398580E-1	7.930251145E-1	1.794529959E0
3.381576125E0	1.712800469E0	3.240474290E-1	-3.908751105E-1	1.786470133E0
3.391585125E0	-1.553444400E-2	3.928410906E-1	-6.189166671E-1	7.332279879E-1
3.401593125E0	1.445026790E-1	1.213390219E0	8.389424220E-2	1.224840843E0
3.411601125E0	1.688848812E0	1.587609097E0	1.528307220E0	2.776407015E0
3.421609125E0	3.533438505E0	1.631631614E0	3.967199580E0	5.557524800E0
3.431618125E0	2.421444999E0	2.486665281E0	4.310318872E0	5.534053567E0
3.441626125E0	-9.198097068E-1	1.793886001E0	1.961685157E0	2.812878514E0
3.451634125E0	-4.490686472E-1	9.854657525E-1	8.844632882E-1	1.398242006E0
3.461643125E0	9.254679112E-1	9.281156766E-1	3.208973877E-1	1.349394196E0
3.471651125E0	1.306702425E0	3.049539310E-1	4.870022395E-1	1.427459039E0
3.481659125E0	2.580448188E0	-3.814249867E-1	7.905996895E-1	2.725664275E0
3.491668125E0	2.891271262E0	-1.918436372E-1	-7.022258954E-1	2.981505442E0
3.501676125E0	2.612214941E0	-1.750785005E-1	-3.427378199E0	4.312915568E0
3.511684125E0	2.049560768E0	-2.220012367E-2	-5.327420400E0	5.708117055E0
3.521692125E0	5.995167750E0	-6.400561059E-1	-1.078258799E0	6.124895935E0
3.531701125E0	2.355245601E0	-4.069866747E-1	-1.086095164E0	2.625342397E0
3.541709125E0	1.736477161E0	-7.967918909E-1	1.014602282E-1	1.913249703E0
3.551717125E0	2.385887642E0	-1.007251893E0	5.423934980E-1	2.645979389E0
3.561726125E0	1.657758728E0	-8.457500428E-1	5.498481133E-1	1.940564372E0
3.571734125E0	1.230592727E0	-7.199717563E-1	-8.585794917E-1	1.664294605E0
3.581742125E0	1.002206623E0	-7.380589485E-1	-7.612741488E-1	1.459002213E0
3.591750125E0	2.406547317E-1	-1.147013211E-1	5.867967421E-1	6.445164928E-1
3.601759125E0	-3.010561770E-1	2.913316727E-1	2.054387060E0	2.096667631E0
3.611767125E0	6.471935096E-1	2.872298509E-1	2.278962826E0	2.386426614E0
3.621775125E0	9.885276470E-1	-1.776857740E-1	8.730863607E-1	1.330803868E0
3.631784125E0	1.168347070E0	-6.270179844E-1	-5.492897042E-1	1.435237126E0
3.641792125E0	2.264774849E0	-4.290932429E-1	-8.370488012E-1	2.452341090E0
3.651800125E0	2.132325182E0	-4.759697860E-1	-5.645556879E-1	2.256563991E0
3.661809125E0	9.170603460E-1	-1.018515970E0	-3.474650160E-1	1.413897590E0
3.671817125E0	-7.904669577E-1	6.088933700E-1	8.900331996E-1	1.337067030E0
3.681825125E0	-1.844392203E0	2.196322373E0	1.954797868E0	3.470857137E0
3.691833125E0	-2.173374098E0	1.586927896E0	2.852590469E0	3.921628169E0
3.701842125E0	-1.751588413E0	1.429439574E0	1.808294271E0	2.895045360E0
3.711850125E0	1.384357542E-2	6.137149841E-1	-5.086580604E-1	7.972269117E-1
3.721858125E0	8.471001649E-1	-4.941885406E-1	-1.427700759E0	1.732088468E0
3.731867125E0	6.991811040E-1	-1.790000526E0	-7.284853023E-1	2.055151317E0
3.741875125E0	2.816328961E-1	-1.668742722E0	-4.815240562E-2	1.693026289E0
3.751883125E0	2.293108410E-1	1.828395098E-1	6.708434504E-1	7.321507243E-1
3.761891125E0	4.309137735E-1	1.405426814E0	1.391823267E0	2.024372302E0
3.771900125E0	1.152436504E-1	1.335405237E0	1.877715193E0	2.307033288E0
3.781908125E0	-7.649795294E-2	4.819450557E-1	2.477029654E0	2.524638367E0
3.791916125E0	-4.569131255E-2	-1.072549505E0	2.253214027E0	2.495881325E0
3.801925125E0	1.130389577E-1	-2.276083072E0	8.592209313E-1	2.435486104E0
3.811933125E0	-1.588885544E0	6.157550776E-1	2.631437078E0	3.134991656E0
3.821941125E0	-7.164672276E-1	1.923804701E0	1.561065661E0	2.579006750E0
3.831950125E0	7.750539896E-1	3.051834927E0	1.856575754E0	3.655308282E0
3.841958125E0	1.721621140E0	1.088904167E0	9.575376964E-1	2.250904279E0
3.851966125E0	1.309460849E0	-7.304417807E-1	5.927340049E-1	1.612317125E0
3.861974125E0	-3.016064000E-1	-1.365316669E0	6.659849989E-1	1.548738856E0
3.871983125E0	-7.380706429E-1	-1.263175752E0	1.599281893E0	2.167501748E0
3.881991125E0	-7.843686041E-1	-1.571257943E-1	2.151549073E0	2.295448983E0
3.891999125E0	-5.660572529E-1	-2.216737926E-2	1.849284276E0	1.934105618E0
3.902008125E0	-1.372809291E-1	6.969144309E-1	1.644374451E0	1.791229497E0
3.912016125E0	-7.494212580E-1	1.408738677E0	1.827285882E0	2.425932929E0
3.922024125E0	-6.340437064E-1	3.347702284E0	1.020562495E0	3.556778010E0
3.932032125E0	1.137121769E0	4.515143913E0	2.582457876E-1	4.663288685E0
3.942041125E0	-6.353797951E-1	-8.784815866E-1	2.435414436E0	2.665835864E0
3.952049125E0	-1.286492986E0	-4.047487113E0	1.939115635E0	4.668767030E0
3.962057125E0	6.005166489E-1	-3.326231893E0	1.951923376E0	3.903132552E0
3.972066125E0	4.334704685E-1	-2.646457406E0	1.428841989E0	3.038621871E0
3.982074125E0	-8.225827897E-1	-6.820069546E-1	2.027971094E0	2.292257117E0
3.992082125E0	-1.287153429E0	1.577485228E-1	3.730592583E0	3.949553085E0
4.002091375E0	-3.151146376E-1	-1.116040510E0	4.049824830E0	4.212591223E0
4.012099375E0	-2.119232389E0	-1.697191181E0	2.853074033E0	3.938481339E0
4.022107375E0	-9.067332861E-1	1.719028777E-1	1.192147869E0	1.507624752E0
4.032115375E0	-9.237776273E-1	1.943508064E0	7.210412121E-1	2.269468909E0
4.042124375E0	-2.049623041E0	5.427629398E0	3.694124669E0	6.877984629E0
4.052132375E0	-1.268183892E0	1.818004012E0	-3.840392768E-2	2.216958238E0
4.062140375E0	-2.676686049E0	-2.388347858E-1	4.517973965E-1	2.725034155E0
4.072149375E0	-1.939902963E0	1.374568133E0	2.071429355E0	3.153328500E0
4.082157375E0	-2.884796055E0	2.130586805E0	2.316312500E0	4.269280034E0
4.092165375E0	-2.639520854E0	2.659810107E0	2.969646463E0	4.781261367E0
4.102173375E0	-1.993508774E0	3.606332234E0	1.911049585E0	4.542226319E0
4.112182375E0	1.475229120E-1	2.158020771E0	-8.152918965E-1	2.311604969E0
4.122190375E0	3.416705569E0	1.658866775E0	-2.887893033E0	4.771335462E0
4.132198375E0	1.043729163E0	6.731431603E-1	-3.886824923E0	4.080428931E0
4.142207375E0	1.412008732E0	-9.591187835E-1	-3.624576716E0	4.006399116E0
4.152215375E0	2.091753691E0	-1.787157025E0	-3.601039919E0	4.531760391E0
4.162223375E0	2.115519407E0	-2.818331047E0	-3.850468106E0	5.219628041E0
4.172232375E0	2.467534946E0	-3.217559636E0	-3.377544719E0	5.277236687E0
4.182240375E0	2.042592349E0	-3.605180917E0	-2.519573995E0	4.849511941E0
4.192248375E0	8.708439535E-1	-4.242197641E0	-1.667180931E0	4.640485133E0
4.202256375E0	-2.066492843E0	-3.124998212E0	-4.988294756E-1	3.779528720E0
4.212265375E0	-3.162025706E0	-2.135969167E0	1.035458862E0	3.953852033E0
4.222273375E0	-2.001850412E0	-8.447156703E-1	1.223716986E0	2.493678587E0
4.232281375E0	-1.093548903E0	2.828573030E-1	9.817533553E-1	1.496561762E0
4.242290375E0	1.433026841E-1	8.046686751E-1	9.564115226E-2	8.229061708E-1
4.252298375E0	1.305718046E0	1.093238123E0	-1.102288297E0	2.028573070E0
4.262306375E0	1.973770328E0	-5.346460104E-2	-2.135099247E0	2.908139709E0
4.272314375E0	1.498759485E0	-3.365394790E0	-2.497441115E0	4.450772316E0
4.282323375E0	-8.132442015E-1	-6.592394755E0	-2.342215081E0	7.043224136E0
4.292331375E0	-3.581756971E0	-8.374864068E0	-1.281988729E0	9.198414334E0
4.302339375E0	-5.929440368E0	-7.456711462E0	1.317923816E0	9.617574128E0
4.312348375E0	-3.897132687E0	-5.999302316E0	2.932433614E0	7.731651723E0
4.322356375E0	-4.048075928E0	-8.964325386E-1	2.387939723E0	4.784638558E0
4.332364375E0	4.035110312E0	9.637408905E0	1.091581461E0	1.050491864E1
4.342372375E0	7.467228849E0	1.125260867E1	7.449930154E-1	1.352537331E1
4.352381375E0	6.891412593E0	5.793101426E0	4.346763106E-1	9.013353158E0
4.362389375E0	5.183533287E0	1.128276393E0	-6.672632003E-1	5.346706008E0
4.372397375E0	5.357611914E0	6.567411357E-1	-1.507224061E0	5.604198311E0
4.382406375E0	4.936791312E0	1.493702229E0	-1.959850593E0	5.517614444E0
4.392414375E0	2.998218298E0	3.179125888E0	-1.505468581E0	4.621968198E0
4.402422375E0	3.818530029E-1	4.049756418E0	-5.486628096E-1	4.104554743E0
4.412430375E0	-4.015341461E-1	2.996974010E0	-3.044713895E-1	3.039043553E0
4.422439375E0	-4.072924840E-1	2.479920518E0	-6.734945780E-1	2.601823954E0
4.432447375E0	1.092178023E-1	2.316700171E0	-7.325363995E-1	2.432208417E0
4.442455375E0	9.917813301E-2	2.252963766E0	-8.945450574E-1	2.426085920E0
4.452464375E0	4.390528053E-2	1.767982251E0	-5.847702433E-1	1.862698352E0
4.462472375E0	-7.058554083E-2	9.420033985E-1	-7.158624794E-1	1.185247574E0
4.472480375E0	-2.557958043E-1	6.867806214E-1	-6.670269728E-1	9.909712901E-1
4.482489375E0	-3.516354695E-1	5.959862262E-1	-5.396044493E-1	8.775078614E-1
4.492497375E0	-5.273498547E-1	6.525095057E-1	-6.291085102E-1	1.048639138E0
4.502505375E0	-9.909200352E-1	5.315306139E-1	-3.722081669E-1	1.184477197E0
4.512513375E0	-1.526065105E0	1.275394678E-1	-2.023347116E-1	1.544694260E0
4.522522375E0	-2.297629477E0	-8.981849492E-2	2.640292686E-1	2.314493471E0
4.532530375E0	-2.815491347E0	-6.421792299E-1	1.159379926E0	3.111839890E0
4.542538375E0	-2.797683359E0	-1.784239849E0	1.691882493E0	3.724649029E0
4.552547375E0	-2.747488229E0	-2.794798343E0	1.732735674E0	4.285086027E0
4.562555375E0	-1.843090906E0	-3.707477371E0	1.530679874E0	4.414221723E0
4.572563375E0	5.664305976E-1	-4.761468397E0	4.447474086E-1	4.815623031E0
4.582571375E0	-2.904859022E0	-4.967755242E0	2.070597880E0	6.115895164E0
4.592580375E0	-2.730784780E0	-4.372925010E0	1.026394362E0	5.256723699E0
4.602588375E0	-2.182536100E0	-3.966939964E0	5.487031554E-1	4.560827957E0
4.612596375E0	-2.353143235E0	-3.373556918E0	2.799828118E-1	4.122688411E0
4.622605375E0	-1.447192598E0	-2.260877972E0	4.963509871E-1	2.729890094E0
4.632613375E0	-4.433054852E-1	-9.966824663E-1	9.046187867E-1	1.417120616E0
4.642621375E0	-3.210551164E-1	1.644266278E-1	1.284474088E0	1.334161230E0
4.652630375E0	-5.920305848E-2	8.802632332E-1	1.211938940E0	1.499054487E0
4.662638375E0	3.521511939E-1	8.828541344E-1	6.154625706E-1	1.132358628E0
4.672646375E0	-1.903808978E0	-7.357568997E-1	1.053072429E0	2.296690745E0
4.682654375E0	-1.669042100E0	-1.170048317E0	1.126361284E0	2.328820375E0
4.692663375E0	9.441817787E-1	3.807496333E-1	8.152508198E-1	1.304255885E0
4.702671375E0	2.112962420E0	3.268210557E0	-4.771066310E-1	3.920898006E0
4.712679375E0	1.474988507E0	5.185493858E0	-5.147555369E-1	5.415709641E0
4.722688375E0	1.839351026E0	6.284410797E0	-5.558474296E-1	6.571605408E0
4.732696375E0	1.113387336E0	4.930104436E0	7.026938188E-1	5.102875631E0
4.742704375E0	5.444976917E-1	3.318656241E0	9.305576201E-1	3.489397436E0
4.752712375E0	5.203191626E-1	2.639858823E0	1.079040791E-1	2.692810785E0
4.762721375E0	-3.567383346E-1	1.666268765E0	-8.943304646E-1	1.924458578E0
4.772729375E0	-6.784585717E-1	1.126885341E0	-2.070393228E0	2.452897210E0
4.782737375E0	-4.123857012E-1	9.915298998E-1	-3.364686692E0	3.531898929E0
4.792746375E0	1.252190003E-1	9.402445561E-1	-4.191076019E0	4.297075496E0
4.802754375E0	4.347308359E-1	1.669126884E0	-3.953636963E0	4.313492865E0
4.812762375E0	9.419159827E-1	1.877984750E0	-3.365256211E0	3.967238561E0
4.822770375E0	1.710182232E0	1.892908598E0	-2.749149131E0	3.750419599E0
4.832779375E0	2.115082328E0	1.280047892E0	-2.139825990E0	3.269701994E0
4.842787375E0	1.842231657E0	8.003306258E-1	-1.779780178E0	2.683647531E0
4.852795375E0	2.919619733E0	6.929435867E-1	-1.108413402E0	3.198895195E0
4.862804375E0	4.383896726E0	-3.513626969E-1	3.038914919E-1	4.408441480E0
4.872812375E0	-2.872889078E-1	7.967240632E-1	-4.715767729E-1	9.693754701E-1
4.882820375E0	2.333039045E-4	1.540691038E0	9.102612036E-1	1.789498362E0
4.892828375E0	2.990708719E0	1.194656909E0	1.730541506E0	3.655997494E0
4.902837375E0	5.532245441E0	9.736268950E-1	2.255748648E0	6.053271092E0
4.912845375E0	4.782143275E0	2.192764342E-1	2.729071546E0	5.510427203E0
4.922853375E0	3.393721626E0	2.117686093E-2	2.145849353E0	4.015278867E0
4.932862375E0	3.782127311E0	8.023549318E-1	1.622621055E0	4.192989330E0
4.942870375E0	2.885481057E0	6.835763472E-1	8.226471090E-1	3.077340705E0
4.952878375E0	2.659939916E0	4.086285728E-1	8.708328438E-1	2.828534516E0
4.962887375E0	2.045106359E0	2.464127773E-1	1.119014989E0	2.344221368E0
4.972895375E0	8.827564859E-1	2.437248123E-1	8.734225756E-1	1.265514833E0
4.982903375E0	2.515770382E-1	2.449872261E-1	3.943040639E-1	5.280013655E-1
4.992911375E0	5.937789023E-2	1.882914537E-1	-3.008747672E-1	3.598680743E-1
5.002920458E0	-3.039169273E-1	1.101498485E-1	-9.071516544E-1	9.630278354E-1
5.012928458E0	-4.706020421E-1	1.274693012E-3	-1.205613568E0	1.294207086E0
5.022936458E0	-5.519154695E-1	-6.447198451E-2	-1.036604916E0	1.176145005E0
5.032945458E0	-4.600329074E-1	-1.182160825E-1	-8.443461263E-1	9.687753605E-1
5.042953458E0	-3.479508466E-1	-1.551055813E-1	-5.856730534E-1	6.986704935E-1
5.052961458E0	-2.281770658E-1	-2.419326407E-1	-3.122636814E-1	4.561850313E-1
5.062969458E0	-4.009953251E-1	-4.998217481E-1	3.752158284E-3	6.408066084E-1
5.072978458E0	-4.568248326E-1	-7.027166229E-1	5.619373047E-1	1.009095196E0
5.082986458E0	-1.610527843E-1	-8.606054789E-1	9.966257483E-1	1.326590620E0
5.092994458E0	6.437696725E-2	-1.000224125E0	1.286270938E0	1.630670297E0
5.103003458E0	3.455634284E-1	-1.080632111E0	1.305724186E0	1.729767467E0
5.113011458E0	5.840479660E-1	-1.097787842E0	1.220581271E0	1.742431867E0
5.123019458E0	5.816304347E-1	-1.007037885E0	1.140737541E0	1.629018539E0
5.133027458E0	3.913251999E-1	-6.531649786E-1	1.064016224E0	1.308392306E0
5.143036458E0	-5.031733721E-2	-1.324277401E-1	1.088324708E0	1.097506087E0
5.153044458E0	-1.612641612E-1	3.597686541E-1	1.263579209E0	1.323658579E0
5.163052458E0	-3.974489889E-1	5.849560386E-1	1.454038665E0	1.616900647E0
5.173061458E0	-5.663458130E-1	6.362279338E-1	1.711404008E0	1.911658244E0
5.183069458E0	-1.084019988E0	4.989095825E-1	1.829564542E0	2.184334342E0
5.193077458E0	-1.133370780E0	3.199964780E-1	1.906564770E0	2.240963251E0
5.203085458E0	-6.128399482E-1	2.319999754E-2	1.836054366E0	1.935770306E0
5.213094458E0	-6.249211729E-1	-3.789434284E-1	1.690749303E0	1.841944027E0
5.223102458E0	-5.618013570E-1	-7.232918054E-1	1.656858256E0	1.893132611E0
5.233110458E0	-9.273099303E-2	-1.227740455E0	1.593333521E0	2.013617980E0
5.243119458E0	1.910987020E-1	-1.690261645E0	1.407675653E0	2.207952420E0
5.253127458E0	4.139682502E-1	-1.994902166E0	1.324738162E0	2.430213069E0
5.263135458E0	2.427103204E-1	-2.166246049E0	1.293938538E0	2.534917590E0
5.273144458E0	-1.508727819E-2	-2.309009913E0	1.517079397E0	2.762839897E0
5.283152458E0	-3.925297263E-1	-2.182255726E0	1.785936127E0	2.847084032E0
5.293160458E0	-7.894518811E-1	-1.742121770E0	1.835583081E0	2.650959785E0
5.303168458E0	-3.557948864E-1	-1.124246492E0	1.857699004E0	2.200355828E0
5.313177458E0	7.423768249E-1	-1.295965183E-1	1.907084588E0	2.050582901E0
5.323185458E0	1.398066924E0	1.014279662E0	2.011088428E0	2.651005662E0
5.333193458E0	1.388195362E0	1.710279588E0	2.179756041E0	3.098948052E0
5.343202458E0	1.842437187E-1	2.055396289E0	2.056221331E0	2.913184824E0
5.353210458E0	-1.334582826E0	2.036154272E0	1.686424702E0	2.961598186E0
5.363218458E0	-2.104814325E0	1.661070006E0	1.458371598E0	3.052252385E0
5.373226458E0	-2.384210661E0	1.155917936E0	1.228816928E0	2.920718711E0
5.383235458E0	-2.205231775E0	7.472460938E-1	9.671423328E-1	2.521267181E0
5.393243458E0	-1.501566149E0	3.071536535E-1	6.820934933E-1	1.677586302E0
5.403251458E0	-6.898240972E-1	-3.541880715E-1	3.401255909E-1	8.467537379E-1
5.413260458E0	-1.578847629E-1	-1.062086497E0	-8.057463169E-2	1.076776484E0
5.423268458E0	2.976262003E-1	-1.678305259E0	-4.238928024E-1	1.756409692E0
5.433276458E0	6.299141103E-1	-2.189421489E0	-6.689553845E-1	2.374417728E0
5.443284458E0	6.070725471E-1	-2.760880984E0	-1.161441801E0	3.056132841E0
5.453293458E0	6.080923015E-1	-3.185674769E0	-1.690663934E0	3.657409537E0
5.463301458E0	7.831591076E-1	-3.424999552E0	-2.018803244E0	4.052101511E0
5.473309458E0	9.644002810E-1	-3.462671993E0	-2.067885357E0	4.146843991E0
5.483318458E0	1.168461383E0	-3.078472502E0	-1.718113688E0	3.714055680E0
5.493326458E0	1.422565588E0	-2.383153777E0	-1.085298774E0	2.980098690E0
5.503334458E0	1.670075887E0	-1.115896668E0	-6.731678648E-1	2.118379999E0
5.513342458E0	1.124280991E0	9.194974655E-1	-7.686014409E-1	1.643238117E0
5.523351458E0	-2.531990558E-2	3.681605780E0	-8.320137638E-1	3.774534292E0
5.533359458E0	-1.112073466E0	6.412361324E0	-6.800431672E-1	6.543511585E0
5.543367458E0	-2.133756873E0	8.666826655E0	-7.132974520E-1	8.954082640E0
5.553376458E0	-1.866581510E0	8.655977147E0	-1.057663663E0	8.917887604E0
5.563384458E0	-1.931621844E0	6.668554739E0	-2.088935333E0	7.250133522E0
5.573392458E0	-2.054185623E0	4.605512046E0	-3.018199403E0	5.877069629E0
5.583400458E0	-1.682090454E0	3.002068689E0	-3.063830197E0	4.607483064E0
5.593409458E0	-1.242795574E0	1.843448755E0	-2.643650742E0	3.454234126E0
5.603417458E0	-1.068528959E0	9.353749949E-1	-1.902982766E0	2.374452342E0
5.613425458E0	-9.235905164E-1	2.581124711E-1	-1.290524349E0	1.607822933E0
5.623434458E0	-7.755507106E-1	-2.203324413E-1	-7.524463150E-1	1.102814919E0
5.633442458E0	-6.848957714E-1	-9.321520096E-1	-5.249241373E-1	1.270249950E0
5.643450458E0	-2.796235004E-1	-2.710708365E0	-5.993466210E-1	2.790223202E0
5.653459458E0	-9.426141402E-1	-3.334674688E0	2.817159265E-1	3.476771571E0
5.663467458E0	-7.037983578E-1	-2.607562312E0	9.067408875E-1	2.849016036E0
5.673475458E0	-2.491232541E-1	-2.018690978E0	7.433582801E-1	2.165584723E0
5.683483458E0	3.971437642E-1	-1.105596798E0	-2.254344293E-1	1.196197363E0
5.693492458E0	1.389552793E0	-5.114138532E-1	-8.471405107E-1	1.705886320E0
5.703500458E0	2.168943662E0	-2.728527170E-1	-1.043970946E0	2.422527719E0
5.713508458E0	2.371604941E0	-3.312289792E-1	-1.105344783E0	2.637424828E0
5.723517458E0	2.134069406E0	-4.132122052E-1	-1.046649555E0	2.412565408E0
5.733525458E0	1.804278550E0	-2.694619167E-1	-1.011159588E0	2.085779116E0
5.743533458E0	1.498915899E0	-1.690541142E-1	-1.174301582E0	1.911625583E0
5.753541458E0	1.204078820E0	-1.027618915E-1	-1.299135543E0	1.774293936E0
5.763550458E0	9.510022634E-1	-9.682989120E-2	-1.130702988E0	1.480631818E0
5.773558458E0	8.136210546E-1	-1.780360222E-2	-8.851134986E-1	1.202381842E0
5.783566458E0	6.264370635E-1	-7.666576803E-2	-6.392091367E-1	8.982702015E-1
5.793575458E0	4.080722103E-1	-2.964193350E-1	-1.277891439E-1	5.203051184E-1
5.803583458E0	1.947470722E-1	-6.060633177E-1	2.774024355E-1	6.943999412E-1
5.813591458E0	-1.555569863E-1	-8.413950366E-1	7.393125916E-1	1.130807982E0
5.823599458E0	-6.566604441E-1	-1.191592383E0	1.147046540E0	1.779553627E0
5.833608458E0	-7.241782433E-1	-1.559768749E0	1.279161747E0	2.143260939E0
5.843616458E0	-9.595622948E-1	-1.878930829E0	1.281853220E0	2.468661284E0
5.853624458E0	-1.620118154E0	-2.231430225E0	1.205066707E0	3.009360306E0
5.863633458E0	-2.066056056E0	-2.516007779E0	1.003886674E0	3.406856502E0
5.873641458E0	-2.444426749E0	-2.792726675E0	9.442323571E-1	3.829636948E0
5.883649458E0	-2.552449673E0	-2.993356338E0	1.019561744E0	4.063826725E0
5.893657458E0	-2.621435708E0	-2.997001492E0	9.765907024E-1	4.099716151E0
5.903666458E0	-2.857429332E0	-3.168655279E0	1.024844996E0	4.388118723E0
5.913674458E0	-2.844809286E0	-3.141933503E0	8.256724584E-1	4.318150185E0
5.923682458E0	-2.669512977E0	-2.739846210E0	3.837391685E-1	3.844517205E0
5.933691458E0	-2.093478035E0	-1.862709484E0	3.997682869E-2	2.802487297E0
5.943699458E0	-1.383809950E0	-5.589727664E-1	4.534983516E-1	1.559820915E0
5.953707458E0	-9.830312642E-1	9.159979069E-1	1.469094222E0	1.990889365E0
5.963716458E0	-1.199724106E0	1.979890024E0	1.601235740E0	2.814828296E0
5.973724458E0	-1.498165408E0	2.722470624E0	2.981732073E-1	3.121738803E0
5.983732458E0	-1.712169701E0	3.558543525E0	-1.216446851E0	4.132130207E0
5.993740458E0	-2.078824036E0	4.698438921E0	-2.014395905E0	5.518571240E0
6.003749875E0	-1.944466715E0	5.803152205E0	-2.933760931E0	6.787081812E0
6.013757875E0	-1.406333425E0	6.453746747E0	-3.127293829E0	7.308117916E0
6.023765875E0	-9.771647528E-1	6.312736464E0	-1.439082364E0	6.548011200E0
6.033774875E0	-3.474289826E-1	5.183948439E0	5.663465439E-1	5.226354057E0
6.043782875E0	6.901758072E-1	3.305646186E0	1.233538408E0	3.595171255E0
6.053790875E0	1.298477439E0	1.326685284E0	7.385430980E-1	1.997894745E0
6.063798875E0	1.340859520E0	-5.149642825E-1	1.171211913E-2	1.436394666E0
6.073807875E0	1.530088575E0	-1.852255247E0	-6.351393284E-1	2.485039740E0
6.083815875E0	2.044388321E0	-2.647307006E0	-1.436856621E0	3.640372913E0
6.093823875E0	2.283279532E0	-3.141952799E0	-2.659222462E0	4.707090069E0
6.103832875E0	2.548308967E0	-3.043306178E0	-3.097054369E0	5.034613873E0
6.113840875E0	2.980356224E0	-2.287393926E0	-2.250956709E0	4.379668971E0
6.123848875E0	3.279086963E0	-1.306547474E0	-1.105296982E0	3.698805081E0
6.133856875E0	3.298599122E0	-4.595180601E-1	-1.498479111E-1	3.333821742E0
6.143865875E0	3.172042863E0	2.554057950E-1	2.379511254E-1	3.191192376E0
6.153873875E0	2.950262066E0	7.626786500E-1	1.782424289E-1	3.052457264E0
6.163881875E0	2.539636377E0	1.327223813E0	-2.095503218E-1	2.873184177E0
6.173890875E0	2.197940589E0	2.152291085E0	-3.534172623E-1	3.096482441E0
6.183898875E0	1.933394427E0	2.713189924E0	-3.188843375E-1	3.346804565E0
6.193906875E0	1.629213498E0	3.055846701E0	-2.445032229E-1	3.471644784E0
6.203914875E0	1.337592680E0	3.090189153E0	-2.553677881E-1	3.376926989E0
6.213923875E0	1.580909357E0	2.596612816E0	4.974328682E-2	3.040418870E0
6.223931875E0	1.761028157E0	1.801487966E0	6.329350743E-1	2.597534576E0
6.233939875E0	1.721076179E0	1.287026544E0	9.160613492E-1	2.336173995E0
6.243948875E0	1.655682381E0	9.169182587E-1	1.064660295E0	2.171525912E0
6.253956875E0	1.284938796E0	6.333932036E-1	1.160798607E0	1.843829728E0
6.263964875E0	7.910107487E-1	2.084286797E-1	1.219153527E0	1.468153889E0
6.273972875E0	1.078881454E-1	6.025965035E-2	1.095676704E0	1.102623471E0
6.283981875E0	-2.560855338E-1	-1.701949060E-2	7.731135911E-1	8.146005698E-1
6.293989875E0	-5.005701917E-1	-3.721401930E-2	2.127638054E-1	5.451823887E-1
6.303997875E0	-6.566276997E-1	-1.171869725E-1	-3.752725464E-1	7.653249027E-1
6.314006875E0	-6.863160601E-1	-2.705758113E-1	-7.219513312E-1	1.032208665E0
6.324014875E0	-5.580746341E-1	-4.224642545E-1	-8.693624152E-1	1.116115743E0
6.334022875E0	-3.524040860E-1	-5.004842377E-1	-9.183119425E-1	1.103616752E0
6.344031875E0	-1.588758659E-1	-5.343302608E-1	-8.502921599E-1	1.016733557E0
6.354039875E0	-1.204146355E-2	-5.660554987E-1	-5.583757657E-1	7.952026913E-1
6.364047875E0	-6.935090125E-2	-5.824774039E-1	-2.319216228E-1	6.307750095E-1
6.374055875E0	-7.163365424E-2	-5.258716786E-1	3.745317042E-2	5.320480643E-1
6.384064875E0	1.271275315E-1	-4.301328778E-1	1.922756003E-1	4.880016479E-1
6.394072875E0	3.510893396E-1	-3.437490374E-1	4.291885525E-1	6.524032025E-1
6.404080875E0	5.736945936E-1	-2.463162982E-1	7.506392330E-1	9.763485359E-1
6.414089875E0	7.455758366E-1	-2.299382472E-1	1.031844698E0	1.293622204E0
6.424097875E0	7.414146656E-1	-2.590053409E-1	1.145353333E0	1.388745380E0
6.434105875E0	5.576825783E-1	-2.815457726E-1	1.200045849E0	1.352918298E0
6.444113875E0	1.869328532E-1	-3.011947560E-1	1.175389603E0	1.227681918E0
6.454122875E0	-2.050217995E-1	-2.556256503E-1	1.160930754E0	1.206291269E0
6.464130875E0	-5.171894404E-1	-2.501818925E-1	1.194097331E0	1.325120497E0
6.474138875E0	-8.371411872E-1	-3.184025270E-1	1.231502408E0	1.522755304E0
6.484147875E0	-1.077474907E0	-4.876858521E-1	1.200427453E0	1.685175283E0
6.494155875E0	-1.350554496E0	-6.919717795E-1	1.159802168E0	1.909964256E0
6.504163875E0	-1.539808109E0	-8.950321305E-1	1.007911971E0	2.046455000E0
6.514171875E0	-1.581402277E0	-1.053689895E0	9.400076707E-1	2.120073107E0
6.524180875E0	-1.272102403E0	-1.182501132E0	9.363520646E-1	1.973146888E0
6.534188875E0	-1.466559454E0	-1.324190277E0	9.942313866E-1	2.211961250E0
6.544196875E0	-1.059172537E0	-1.474725090E0	8.833423769E-1	2.019146926E0
6.554205875E0	-7.976923621E-1	-1.715188326E0	8.609370160E-1	2.078315819E0
6.564213875E0	-5.746126065E-1	-1.760248724E0	9.585304805E-1	2.085050575E0
6.574221875E0	1.105875126E-1	-1.623992227E0	9.205878981E-1	1.870043430E0
6.584229875E0	4.680848157E-1	-1.494788057E0	7.382004511E-1	1.731598867E0
6.594238875E0	6.296427995E-2	-1.376238098E0	7.378730071E-1	1.562834725E0
6.604246875E0	-2.358018351E-1	-9.750758350E-1	9.093635830E-1	1.354000560E0
6.614254875E0	2.730108842E-1	-3.450482887E-1	1.027302580E0	1.117561567E0
6.624263875E0	8.270149791E-1	3.843877709E-1	1.381480712E0	1.655353947E0
6.634271875E0	1.277410798E0	1.067811506E0	1.902178189E0	2.527900635E0
6.644279875E0	1.619059808E0	1.248819083E0	2.417894424E0	3.166562364E0
6.654287875E0	1.419932879E0	7.017927629E-1	2.732205069E0	3.158111303E0
6.664296875E0	5.607029575E-1	-1.643365806E-1	2.478970345E0	2.546897778E0
6.674304875E0	-1.995599154E-1	-8.788125390E-1	2.094454520E0	2.280104247E0
6.684312875E0	-9.156613997E-1	-1.052218736E0	1.787223684E0	2.267105768E0
6.694321875E0	-1.991230114E0	-9.144799697E-1	1.376636878E0	2.587740342E0
6.704329875E0	-2.955330141E0	-5.884023875E-1	9.945189234E-1	3.173209968E0
6.714337875E0	-2.929502112E0	3.741691768E-2	7.363211560E-1	3.020852776E0
6.724345875E0	-2.088247993E0	9.168352282E-1	4.719223434E-1	2.328964838E0
6.734354875E0	-1.100914055E0	1.485505017E0	2.197616069E-1	1.861996798E0
6.744362875E0	-2.554648519E-1	1.541595018E0	-8.842466488E-2	1.565118657E0
6.754370875E0	1.869805080E-1	1.316093638E0	-5.191539587E-1	1.427089698E0
6.764379875E0	3.633231765E-1	9.929811788E-1	-1.057204072E0	1.495224332E0
6.774387875E0	5.387946099E-1	4.014920461E-1	-1.629475746E0	1.762579559E0
6.784395875E0	6.426984626E-1	-3.482677656E-1	-2.058340947E0	2.184289176E0
6.794403875E0	8.162824148E-1	-1.053658905E0	-2.358199176E0	2.708803688E0
6.804412875E0	1.173701073E0	-1.738730385E0	-2.424721633E0	3.206248985E0
6.814420875E0	1.367783317E0	-2.327530968E0	-2.266719487E0	3.525088487E0
6.824428875E0	1.265675436E0	-2.616844767E0	-1.954478610E0	3.502827069E0
6.834437875E0	9.806912085E-1	-2.342422072E0	-1.521291877E0	2.960240765E0
6.844445875E0	7.764693081E-1	-1.127073621E0	-9.577559437E-1	1.670477770E0
6.854453875E0	-8.181716502E-2	7.371315801E-1	-4.531850870E-1	8.691569122E-1
6.864461875E0	-1.000579928E0	2.929905277E0	-2.157185496E-1	3.103552742E0
6.874470875E0	-1.514603101E0	4.901644868E0	-2.799934830E-1	5.137951081E0
6.884478875E0	-1.619559453E0	6.134095840E0	-6.993394174E-1	6.382725140E0
6.894486875E0	-1.419390257E0	6.255183490E0	-1.344393577E0	6.553577900E0
6.904495875E0	-8.007121566E-1	5.156805080E0	-1.797006075E0	5.519330523E0
6.914503875E0	-5.730344430E-1	3.597179587E0	-2.149362214E0	4.229400358E0
6.924511875E0	-5.909538200E-1	2.197630979E0	-2.159008658E0	3.136897628E0
6.934519875E0	-3.062534747E-1	1.289281231E0	-1.786809408E0	2.224573025E0
6.944528875E0	-2.088578653E-1	6.589502138E-1	-1.420377852E0	1.579655100E0
6.954536875E0	-3.331737632E-1	6.767275035E-2	-1.299719680E0	1.343449145E0
6.964544875E0	-5.244212767E-1	-4.151903182E-1	-1.240625672E0	1.409451217E0
6.974553875E0	-5.054429689E-1	-9.442288488E-1	-1.326577403E0	1.704948187E0
6.984561875E0	-1.972754082E-1	-1.729489446E0	-1.534892647E0	2.320764264E0
6.994569875E0	-9.933337659E-2	-2.376993150E0	-1.161183354E0	2.647321351E0
7.004578458E0	-2.964628968E-1	-1.867381409E0	-3.013222253E-1	1.914627551E0
7.014586458E0	4.597975570E-1	-1.002893963E0	5.269949287E-2	1.104530367E0
7.024594458E0	9.340315971E-1	-2.397691709E-1	-3.022563180E-1	1.010575658E0
7.034602458E0	1.256629794E0	-1.019573146E-1	-7.204579523E-1	1.452092763E0
7.044611458E0	1.359460390E0	-5.444927216E-2	-7.987735122E-1	1.577699718E0
7.054619458E0	1.330186012E0	-4.457449436E-2	-7.131749529E-1	1.509966962E0
7.064627458E0	1.132877275E0	-2.548456317E-1	-7.363541928E-1	1.374981714E0
7.074636458E0	1.084455020E0	-4.275963557E-1	-7.820519373E-1	1.403740206E0
7.084644458E0	1.004392312E0	-5.182673746E-1	-7.378124884E-1	1.349730439E0
7.094652458E0	9.489186081E-1	-4.987324119E-1	-5.590134045E-1	1.208998151E0
7.104660458E0	9.551833150E-1	-4.919028640E-1	-5.158460426E-1	1.191822442E0
7.114669458E0	8.559800389E-1	-5.305278164E-1	-5.500715500E-1	1.147493051E0
7.124677458E0	6.250822636E-1	-6.568042856E-1	-3.116788137E-1	9.587822427E-1
7.134685458E0	2.927855828E-1	-8.044453114E-1	2.081176078E-1	8.810043106E-1
7.144694458E0	-7.979432076E-2	-9.074393374E-1	6.702999517E-1	1.130979801E0
7.154702458E0	-6.791619918E-1	-9.738818336E-1	9.651979874E-1	1.530135285E0
7.164710458E0	-1.210759556E0	-1.160728440E0	1.118730522E0	2.016131740E0
7.174718458E0	-1.740886254E0	-1.514946333E0	1.155595170E0	2.580919901E0
7.184727458E0	-2.087344306E0	-1.781302208E0	8.154202428E-1	2.862683004E0
7.194735458E0	-2.484740378E0	-2.054552536E0	6.502536500E-1	3.289065320E0
7.204743458E0	-2.735355549E0	-2.494544404E0	7.462007578E-1	3.776471545E0
7.214752458E0	-2.810472974E0	-2.740761884E0	6.677413563E-1	3.982011121E0
7.224760458E0	-2.636367743E0	-2.867288615E0	5.267054915E-1	3.930546724E0
7.234768458E0	-2.359184870E0	-2.827211214E0	4.229811484E-1	3.706452421E0
7.244776458E0	-2.082914748E0	-2.627859752E0	5.736912315E-1	3.401955666E0
7.254785458E0	-1.760752754E0	-2.184397561E0	6.298936450E-1	2.875518904E0
7.264793458E0	-1.433986369E0	-1.437637956E0	5.867517185E-1	2.113621863E0
7.274801458E0	-1.220065400E0	-5.713396275E-1	6.655958667E-1	1.502666433E0
7.284810458E0	-1.183069189E0	4.171865577E-1	1.148044075E0	1.700500670E0
7.294818458E0	-1.171278864E0	1.678379518E0	1.400761321E0	2.480117792E0
7.304826458E0	-1.263485069E0	3.004154391E0	3.592587769E-1	3.278781023E0
7.314834458E0	-1.433166297E0	4.282138216E0	-1.763064158E0	4.847583786E0
7.324843458E0	-1.944914904E0	5.587621497E0	-3.700296405E0	6.978280695E0
7.334851458E0	-2.500800925E0	6.561386386E0	-2.766759190E0	7.547234791E0
7.344859458E0	-1.689411168E0	6.228164091E0	3.265668480E-1	6.461484655E0
7.354868458E0	-2.207572415E-1	4.215015689E0	1.730493997E0	4.561765063E0
7.364876458E0	6.669772714E-1	1.925189322E0	1.158188264E0	2.343632364E0
7.374884458E0	8.407761088E-1	2.121153492E-1	5.751045035E-1	1.040501118E0
7.384892458E0	8.035360694E-1	-1.101096196E0	9.938746333E-2	1.366733667E0
7.394901458E0	1.128206227E0	-1.934090538E0	-9.397788253E-1	2.428320354E0
7.404909458E0	1.795002235E0	-2.399955751E0	-2.190921738E0	3.712406051E0
7.414917458E0	2.462788761E0	-2.298271501E0	-2.612896727E0	4.263168971E0
7.424926458E0	2.740050571E0	-1.630709508E0	-1.747097166E0	3.635854664E0
7.434934458E0	2.716621362E0	-8.599868435E-1	-4.806069204E-1	2.889739090E0
7.444942458E0	2.885915212E0	-3.955904514E-1	-1.930044557E-1	2.919289149E0
7.454950458E0	2.875082953E0	-2.999393588E-1	-6.780821572E-1	2.969151565E0
7.464959458E0	2.591452063E0	-3.486665457E-1	-8.440486492E-1	2.747655415E0
7.474967458E0	2.079372797E0	-2.941213793E-1	-7.836208914E-1	2.241508491E0
7.484975458E0	1.525751402E0	-7.157050431E-2	-6.526958857E-1	1.661039313E0
7.494984458E0	1.209120874E0	2.893822110E-1	-5.608760351E-1	1.363927153E0
7.504992458E0	1.111900097E0	7.240104282E-1	-3.364904501E-1	1.368845772E0
7.515000458E0	8.413134679E-1	9.865545040E-1	-9.634237960E-2	1.300146144E0
7.525008458E0	9.757099655E-1	1.147207924E0	7.752677053E-3	1.506039860E0
7.535017458E0	1.609775307E0	1.194879103E0	7.288627401E-2	2.006096961E0
7.545025458E0	1.633477580E0	1.147195644E0	-5.070573851E-2	1.996716786E0
7.555033458E0	2.024563921E0	1.013839951E0	6.620914842E-1	2.359045496E0
7.565042458E0	2.160600270E0	7.105361044E-1	1.621544436E0	2.793288643E0
7.575050458E0	1.927771744E0	7.615431207E-1	2.014249871E0	2.890234310E0
7.585058458E0	1.823960278E0	8.795510423E-1	2.017726041E0	2.858611465E0
7.595067458E0	1.443145156E0	6.357262427E-1	1.564943389E0	2.221680356E0
7.605075458E0	8.723218372E-1	6.024748814E-1	1.136787454E0	1.554415352E0
7.615083458E0	4.618934914E-1	6.043062294E-1	4.929552166E-1	9.063864859E-1
7.625091458E0	1.985629651E-1	6.095973748E-1	-2.244981439E-1	6.792905322E-1
7.635100458E0	-7.323929965E-2	5.794479614E-1	-6.963624537E-1	9.088699588E-1
7.645108458E0	-2.558396584E-1	5.168903553E-1	-8.977006535E-1	1.067003296E0
7.655116458E0	-2.908410913E-1	5.056905985E-1	-9.397576292E-1	1.106099418E0
7.665125458E0	-2.608439979E-1	4.269929230E-1	-8.139476216E-1	9.554440215E-1
7.675133458E0	-3.452973801E-1	3.071752882E-1	-5.283644928E-1	7.019657938E-1
7.685141458E0	-3.209372950E-1	1.780407000E-1	-2.437471779E-1	4.405813487E-1
7.695149458E0	-1.347964472E-1	-1.236370361E-1	-3.606124073E-3	1.829459018E-1
7.705158458E0	-1.316810507E-1	-3.897584385E-1	1.440957128E-1	4.359072308E-1
7.715166458E0	-1.831055582E-3	-5.576770234E-1	2.572574620E-1	6.141566713E-1
7.725174458E0	2.188045639E-1	-6.029309642E-1	3.449502017E-1	7.282800467E-1
7.735183458E0	4.033973613E-1	-5.698398167E-1	4.588368595E-1	8.354508432E-1
7.745191458E0	5.047629377E-1	-4.077427197E-1	5.810641319E-1	8.710196749E-1
7.755199458E0	5.778341299E-1	-2.737987965E-1	6.719282551E-1	9.275481889E-1
7.765207458E0	5.917586893E-1	-1.660673565E-1	6.932936887E-1	9.265057216E-1
7.775216458E0	5.262704587E-1	-5.926796257E-2	6.377930872E-1	8.290074241E-1
7.785224458E0	3.266456392E-1	1.103708732E-1	5.934624217E-1	6.863503109E-1
7.795232458E0	1.701300019E-1	2.383383572E-1	6.727853107E-1	7.337502739E-1
7.805241458E0	6.379049152E-2	2.690567046E-1	8.310473652E-1	8.758427144E-1
7.815249458E0	-6.544525355E-2	2.006887203E-1	1.098611056E0	1.118706975E0
7.825257458E0	-1.538656792E-1	-2.393908560E-2	1.340643027E0	1.349656050E0
7.835265458E0	-4.397410226E-1	-2.864720517E-1	1.426960794E0	1.520412941E0
7.845274458E0	-5.212292817E-1	-5.035820925E-1	1.427739789E0	1.601160764E0
7.855282458E0	-8.610334951E-1	-6.513125807E-1	1.473286675E0	1.826515914E0
7.865290458E0	-8.093634045E-1	-7.193554598E-1	1.390131667E0	1.762103133E0
7.875299458E0	-6.268925616E-1	-8.031191629E-1	1.222259275E0	1.591198419E0
7.885307458E0	-6.655265772E-1	-8.971137393E-1	1.072181130E0	1.548325244E0
7.895315458E0	-3.859875691E-1	-1.019705878E0	8.614819765E-1	1.389581835E0
7.905323458E0	-1.716695738E-1	-1.228153269E0	7.043544281E-1	1.426164806E0
7.915332458E0	1.056971937E-1	-1.483143327E0	6.698002341E-1	1.630802986E0
7.925340458E0	1.740745336E-1	-1.598140517E0	6.491543734E-1	1.733711757E0
7.935348458E0	1.310004348E-1	-1.571554397E0	7.538850224E-1	1.747937917E0
7.945357458E0	-1.885917082E-1	-1.323637716E0	9.747601584E-1	1.654612039E0
7.955365458E0	-4.156563413E-1	-7.341530085E-1	1.360275784E0	1.600656441E0
7.965373458E0	-2.341611063E-1	5.719570935E-2	1.658052843E0	1.675482618E0
7.975381458E0	2.136324093E-1	8.255274475E-1	2.031724421E0	2.203415189E0
7.985390458E0	6.448844442E-1	1.421632957E0	2.408241255E0	2.869937657E0
7.995398458E0	9.802108598E-1	1.448880397E0	2.892156238E0	3.380034828E0
8.005406083E0	5.587698680E-1	1.043699343E0	3.035176209E0	3.257886846E0
8.015415083E0	-1.289018691E-2	4.072340119E-1	2.884366577E0	2.913001244E0
8.025423083E0	-4.901782277E-1	-2.125147140E-1	2.552311386E0	2.607629309E0
8.035431083E0	-1.243559512E0	-5.813062066E-1	2.011549773E0	2.435300732E0
8.045439083E0	-1.925437244E0	-7.457047677E-1	1.591057200E0	2.606692769E0
8.055448083E0	-2.441216043E0	-7.995874447E-1	1.220726720E0	2.844125450E0
8.065456083E0	-2.361072644E0	-5.764793301E-1	7.824428236E-1	2.553274215E0
8.075464083E0	-1.781865295E0	-1.423492956E-1	3.831638756E-1	1.828147097E0
8.085473083E0	-9.782581821E-1	1.308905071E-1	3.023470961E-2	9.874388758E-1
8.095481083E0	-3.844547215E-1	1.349145609E-1	-3.629746825E-1	5.456720551E-1
8.105489083E0	-2.337354290E-1	3.434011281E-2	-7.234397399E-1	7.610364981E-1
8.115497083E0	-1.789715767E-2	-2.647736192E-2	-9.049840915E-1	9.055482123E-1
8.125506083E0	1.016310400E-1	-2.038380307E-1	-1.312930294E0	1.332540719E0
8.135514083E0	1.474805197E-1	-7.071517360E-1	-1.772995215E0	1.914504143E0
8.145522083E0	3.564787182E-1	-1.336474693E0	-2.171743017E0	2.574822210E0
8.155531083E0	6.700730798E-1	-1.836154354E0	-2.289598326E0	3.010435390E0
8.165539083E0	1.051895092E0	-2.291081765E0	-2.110413765E0	3.287762947E0
8.175547083E0	1.490576307E0	-2.429946705E0	-1.807472299E0	3.375413282E0
8.185555083E0	1.441701770E0	-2.261242839E0	-1.417398988E0	3.033272665E0
8.195564083E0	7.978613466E-1	-1.567518649E0	-9.109318793E-1	1.980781242E0
8.205572083E0	3.293526077E-1	-2.052852166E-1	-4.593077065E-1	6.013141688E-1
8.215580083E0	-2.524892038E-1	1.676277444E0	-5.177857102E-1	1.772500750E0
8.225589083E0	-8.899628869E-1	3.631678160E0	-1.485122609E-1	3.742081785E0
8.235597083E0	-1.504300892E0	5.058551976E0	-2.483958605E-1	5.283329421E0
8.245605083E0	-1.763339269E0	5.605377737E0	-7.126137663E-1	5.919243476E0
8.255613083E0	-1.662286227E0	5.165483517E0	-1.419936095E0	5.609067122E0
8.265622083E0	-1.310096734E0	4.163248535E0	-1.999391950E0	4.800683283E0
8.275630083E0	-1.020473325E0	3.066297430E0	-2.116191252E0	3.862876021E0
8.285638083E0	-7.800571597E-1	2.122130561E0	-1.957917649E0	2.990880943E0
8.295647083E0	-4.905998120E-1	1.428761882E0	-1.771173954E0	2.327897306E0
8.305655083E0	-3.956243652E-1	8.038138121E-1	-1.490185421E0	1.738760441E0
8.315663083E0	-2.808318275E-1	2.603314894E-1	-1.206064534E0	1.265397432E0
8.325671083E0	-2.552625382E-1	-4.517535424E-1	-8.984647384E-1	1.037535114E0
8.335680083E0	-2.477824876E-1	-1.332514958E0	-7.141470525E-1	1.531991608E0
8.345688083E0	-1.708571032E-1	-2.614560844E0	-7.216200864E-1	2.717693159E0
8.355696083E0	-3.166243887E-1	-2.359569617E0	-6.178782016E-2	2.381520001E0
8.365705083E0	-6.610569656E-2	-1.246573752E0	3.077065077E-1	1.285690234E0
8.375713083E0	6.006619522E-1	-4.743957156E-1	3.004618075E-1	8.222672154E-1
8.385721083E0	8.803828087E-1	-3.469024408E-1	-4.162281990E-2	9.471787859E-1
8.395729083E0	1.351289783E0	-9.459274650E-2	-4.568844742E-1	1.429571715E0
8.405738083E0	1.464291903E0	6.816391647E-2	-6.886672255E-1	1.619586257E0
8.415746083E0	1.295208261E0	3.590716660E-2	-7.317881021E-1	1.488075129E0
8.425754083E0	1.482053698E0	1.012041932E-1	-8.269872048E-1	1.700186251E0
8.435763083E0	1.417987510E0	-1.322505695E-1	-8.227125978E-1	1.644699003E0
8.445771083E0	1.313878713E0	-2.169305313E-1	-8.252321631E-1	1.566634689E0
8.455779083E0	1.231751645E0	-2.437674969E-1	-7.442254221E-1	1.459625358E0
8.465788083E0	1.193077869E0	-2.788700867E-1	-6.350505969E-1	1.380033545E0
8.475796083E0	1.120240565E0	-3.380094105E-1	-6.031473112E-1	1.316425449E0
8.485804083E0	8.991859925E-1	-3.452628815E-1	-5.014896664E-1	1.085925316E0
8.495812083E0	6.726862004E-1	-3.138235724E-1	-2.802096838E-1	7.934163004E-1
8.505821083E0	4.417691293E-1	-3.124179018E-1	5.782574683E-2	5.441587323E-1
8.515829083E0	1.029943183E-1	-3.912594187E-1	5.409057471E-1	6.754781933E-1
8.525837083E0	-3.593637344E-1	-5.333122605E-1	8.965342802E-1	1.103330402E0
8.535846083E0	-7.493879288E-1	-8.133488667E-1	1.060556865E0	1.532285715E0
8.545854083E0	-9.191992575E-1	-9.962708223E-1	1.053655981E0	1.716879074E0
8.555862083E0	-1.232684276E0	-1.256835616E0	1.186174938E0	2.122771131E0
8.565870083E0	-1.673547087E0	-1.711578839E0	1.129656921E0	2.646958015E0
8.575879083E0	-2.194719651E0	-2.082099354E0	9.240875298E-1	3.163205625E0
8.585887083E0	-2.519449742E0	-2.335118315E0	7.828443812E-1	3.523244226E0
8.595895083E0	-2.602638956E0	-2.558180822E0	7.305708580E-1	3.721794249E0
8.605904083E0	-2.428313870E0	-2.635161170E0	7.995944613E-1	3.671530191E0
8.615912083E0	-2.181591775E0	-2.542669913E0	8.566241097E-1	3.458080077E0
8.625920083E0	-1.805571077E0	-2.417923660E0	8.501108962E-1	3.135144378E0
8.635928083E0	-1.589144576E0	-2.227435407E0	8.090708975E-1	2.853321694E0
8.645937083E0	-1.313010986E0	-1.773428348E0	6.867057770E-1	2.310976153E0
8.655945083E0	-1.133454103E0	-1.142165869E0	7.787403667E-1	1.787651430E0
8.665953083E0	-1.065452447E0	-4.484083503E-1	9.492644709E-1	1.495781401E0
8.675962083E0	-1.129286792E0	1.636846161E-1	1.107239281E0	1.589987465E0
8.685970083E0	-1.367808752E0	8.437713450E-1	1.184015561E0	1.996182285E0
8.695978083E0	-1.552066504E0	1.864064868E0	1.053372245E0	2.644473738E0
8.705986083E0	-1.693829324E0	3.091783689E0	5.562413858E-1	3.568975852E0
8.715995083E0	-1.754275793E0	4.336395700E0	-7.129822871E-1	4.731823641E0
8.726003083E0	-1.821394227E0	5.224253297E0	-2.130999618E0	5.928866571E0
8.736011083E0	-1.652493602E0	5.416628446E0	-2.112154919E0	6.044153971E0
8.746020083E0	-1.270215507E0	4.680376287E0	-8.050414351E-1	4.916041226E0
8.756028083E0	-5.923548129E-1	3.680573747E0	2.194264153E-1	3.734388207E0
8.766036083E0	-7.444090247E-3	2.531530382E0	3.266865698E-1	2.552533174E0
8.776044083E0	4.939698547E-1	1.149871330E0	-2.138651285E-1	1.269625373E0
8.786053083E0	6.594337785E-1	-1.905993497E-1	-9.495942539E-1	1.171712536E0
8.796061083E0	1.096607873E0	-1.099095279E0	-1.589618785E0	2.222036710E0
8.806069083E0	1.882355836E0	-1.552965513E0	-2.126782606E0	3.237000098E0
8.816078083E0	2.330169524E0	-1.884065854E0	-2.445444896E0	3.867763552E0
8.826086083E0	2.589856358E0	-1.720110512E0	-2.023804514E0	3.709706301E0
8.836094083E0	2.824824965E0	-1.310919437E0	-1.168389608E0	3.326150948E0
8.846102083E0	3.163284611E0	-8.823875266E-1	-6.062727942E-1	3.339542480E0
8.856111083E0	3.228443351E0	-4.585860139E-1	-2.015542544E-1	3.267073877E0
8.866119083E0	2.952808236E0	-1.173331529E-1	1.621551307E-1	2.959584065E0
8.876127083E0	2.293646061E0	2.558788347E-1	2.770549648E-1	2.324445242E0
8.886136083E0	1.869650128E0	8.774536461E-1	-1.227837811E-1	2.068959246E0
8.896144083E0	1.174500095E0	1.090832579E0	-8.643829264E-1	1.821132623E0
8.906152083E0	6.458360785E-1	1.018795466E0	-9.539470674E-1	1.537876279E0
8.916160083E0	4.922569129E-1	9.058629280E-1	-3.831700882E-1	1.099874461E0
8.926169083E0	7.595974597E-1	1.165100988E0	-9.134403348E-2	1.393840861E0
8.936177083E0	2.067694446E0	9.761014366E-1	5.180362634E-1	2.344460685E0
8.946185083E0	1.935295357E0	7.796893698E-1	9.657939649E-1	2.299139320E0
8.956194083E0	2.004479028E0	8.166209686E-1	1.445457291E0	2.602720261E0
8.966202083E0	2.059398708E0	9.527640295E-1	1.773905481E0	2.880212317E0
8.976210083E0	1.958124933E0	8.504009181E-1	1.792066201E0	2.787281157E0
8.986218083E0	1.313008939E0	8.110421401E-1	1.355324362E0	2.053944000E0
8.996227083E0	1.062689345E0	6.671146810E-1	9.817970632E-1	1.593196822E0
9.006235458E0	6.287560692E-1	5.823651373E-1	6.234400731E-1	1.059792844E0
9.016243458E0	2.339415434E-1	5.367147553E-1	2.076151858E-1	6.212048291E-1
9.026252458E0	7.294050694E-2	5.198098701E-1	-2.312860304E-1	5.735990294E-1
9.036260458E0	-1.224170145E-1	4.080701637E-1	-6.681163090E-1	7.923929495E-1
9.046268458E0	-2.150816417E-1	3.033652425E-1	-9.453061983E-1	1.015822027E0
9.056276458E0	-2.894591019E-1	2.023376352E-1	-1.046351055E0	1.104344883E0
9.066285458E0	-3.881583479E-1	1.346607918E-1	-9.013368908E-1	9.905597521E-1
9.076293458E0	-3.620069683E-1	8.137570024E-2	-6.347732927E-1	7.352606223E-1
9.086301458E0	-4.296247548E-1	-3.303910732E-2	-3.864876522E-1	5.788278828E-1
9.096310458E0	-2.888126922E-1	-1.802410072E-1	-1.068419324E-1	3.568119818E-1
9.106318458E0	5.969276279E-2	-4.501578373E-1	2.475231636E-1	5.171779393E-1
9.116326458E0	3.178011408E-1	-6.455741233E-1	5.930548708E-1	9.324578240E-1
9.126334458E0	5.906944960E-1	-8.531748372E-1	8.444081068E-1	1.337853632E0
9.136343458E0	7.204752016E-1	-9.330419558E-1	1.006620540E0	1.550140871E0
9.146351458E0	6.848908013E-1	-8.522369438E-1	1.046655256E0	1.513562170E0
9.156359458E0	6.080923015E-1	-7.208640414E-1	9.394725774E-1	1.331176148E0
9.166368458E0	4.125906461E-1	-5.211202312E-1	8.088874412E-1	1.046946144E0
9.176376458E0	6.839283496E-2	-2.238717610E-1	6.919156462E-1	7.304405566E-1
9.186384458E0	-3.447211370E-1	3.647902429E-2	6.711663629E-1	7.553990126E-1
9.196392458E0	-6.426315120E-1	1.699428910E-1	8.018747292E-1	1.041565614E0
9.206401458E0	-7.966837174E-1	1.297631639E-1	1.068415962E0	1.339050444E0
9.216409458E0	-8.931107354E-1	-5.017495751E-2	1.345505133E0	1.615719151E0
9.226417458E0	-1.053871744E0	-2.078492206E-1	1.487881910E0	1.835112947E0
9.236426458E0	-1.075723373E0	-3.348367113E-1	1.611022372E0	1.965881350E0
9.246434458E0	-1.080744962E0	-4.946241581E-1	1.660474175E0	2.042017927E0
9.256442458E0	-1.084925721E0	-6.572159296E-1	1.583763968E0	2.029114315E0
9.266450458E0	-9.235931477E-1	-8.116654533E-1	1.475468856E0	1.920633608E0
9.276459458E0	-5.192172548E-1	-1.020900464E0	1.286209688E0	1.722254243E0
9.286467458E0	-4.793623406E-1	-1.300150035E0	1.381543277E0	1.956742240E0
9.296475458E0	-4.910979947E-1	-1.577435526E0	1.657195641E0	2.340037921E0
9.306484458E0	-2.340029392E-1	-1.927077972E0	1.791785097E0	2.641757127E0
9.316492458E0	2.210265058E-1	-2.212781115E0	1.788653328E0	2.853862945E0
9.326500458E0	9.430447876E-2	-2.376265172E0	1.764685006E0	2.961358248E0
9.336508458E0	-5.877738118E-1	-2.257133415E0	1.748056694E0	2.914760970E0
9.346517458E0	-7.243747097E-1	-1.791553547E0	1.574251133E0	2.492518698E0
9.356525458E0	-3.811583537E-1	-9.684380758E-1	1.588468637E0	1.899048870E0
9.366533458E0	-1.413888904E-1	1.051680207E-1	1.883565332E0	1.891790023E0
9.376542458E0	3.973969486E-1	1.034328010E0	2.265577964E0	2.522023449E0
9.386550458E0	6.276731649E-1	1.636730386E0	2.668224835E0	3.192535627E0
9.396558458E0	1.934352493E-1	1.547588999E0	2.724666254E0	3.139467327E0
9.406566458E0	-5.892660213E-1	8.833476394E-1	2.331245120E0	2.561687199E0
9.416575458E0	-1.133973628E0	1.483795291E-1	1.869656560E0	2.191695309E0
9.426583458E0	-1.768380154E0	-2.799886590E-1	1.586443747E0	2.392146689E0
9.436591458E0	-2.538379226E0	-6.774964124E-1	1.330326346E0	2.944849515E0
9.446600458E0	-2.958218080E0	-8.903578663E-1	1.002215613E0	3.247803485E0
9.456608458E0	-2.508735889E0	-6.799768013E-1	6.108334762E-1	2.670063997E0
9.466616458E0	-1.416968341E0	-3.043171692E-1	2.330296701E-1	1.467893404E0
9.476624458E0	-3.480827013E-1	-1.492203587E-1	1.719426388E-1	4.159237351E-1
9.486633458E0	5.901159140E-1	-1.292942172E-1	-7.247631110E-2	6.084460554E-1
9.496641458E0	9.840983811E-1	-1.003007984E-1	-5.536652488E-1	1.133602700E0
9.506649458E0	1.106834361E0	-1.248924333E-1	-1.222865047E0	1.654109835E0
9.516658458E0	9.139016801E-1	-2.407398087E-1	-1.717903626E0	1.960705181E0
9.526666458E0	7.830968347E-1	-5.467316204E-1	-1.976123979E0	2.194817099E0
9.536674458E0	1.088587248E0	-1.263816606E0	-3.267248690E0	3.668401370E0
9.546682458E0	1.700297222E-1	-2.473737087E0	-5.553573160E0	6.081978307E0
9.556691458E0	7.835324523E-1	-2.065712532E0	-1.488283175E0	2.663846500E0
9.566699458E0	6.080174571E-1	-5.310160589E-1	2.329779223E-1	8.402035439E-1
9.576707458E0	-8.125548148E-1	1.221892655E0	5.966083699E-1	1.584048148E0
9.586716458E0	-1.411167610E0	3.132378568E0	-2.543095882E-1	3.444976471E0
9.596724458E0	-2.027826083E0	4.726855804E0	-1.217835126E0	5.285675625E0
9.606732458E0	-2.670271653E0	5.740299899E0	-1.874526122E0	6.602669295E0
9.616740458E0	-2.530018000E0	6.018436745E0	-2.094509777E0	6.856350570E0
9.626749458E0	-1.869393143E0	5.275933328E0	-1.956351765E0	5.929368890E0
9.636757458E0	-1.190917907E0	3.914247780E0	-1.894708956E0	4.508829468E0
9.646765458E0	-5.038545728E-1	2.737778635E0	-1.991398222E0	3.422713567E0
9.656774458E0	6.518008232E-2	1.891887090E0	-1.941252500E0	2.711447302E0
9.666782458E0	4.359385782E-1	1.000807677E0	-1.760097865E0	2.071135666E0
9.676790458E0	4.146035501E-1	1.983001328E-1	-1.349028080E0	1.425165186E0
9.686798458E0	5.712340853E-1	-4.253978026E-1	-8.510952750E-1	1.109790448E0
9.696807458E0	4.370717686E-1	-1.156855829E0	-6.191458780E-1	1.382999913E0
9.706815458E0	2.166352469E-1	-1.931149973E0	-6.581547001E-1	2.051691658E0
9.716823458E0	-2.312632263E-1	-2.440620797E0	-8.444426054E-1	2.592912622E0
9.726832458E0	-6.862564185E-1	-1.917445269E0	-6.286239222E-1	2.131363945E0
9.736840458E0	2.650192022E-2	-1.565669174E0	-9.821948200E-2	1.568970803E0
9.746848458E0	4.030272326E-1	-8.966395301E-1	-4.154753700E-1	1.067245604E0
9.756856458E0	8.868852049E-1	-2.644473445E-1	-5.871604389E-1	1.096017858E0
9.766865458E0	1.155851278E0	9.972543240E-2	-7.961253083E-1	1.407036902E0
9.776873458E0	1.429372332E0	2.464466912E-1	-9.147498187E-1	1.714820243E0
9.786881458E0	1.290955288E0	9.566571057E-2	-1.150730579E0	1.732021463E0
9.796890458E0	1.352540503E0	1.339316440E-1	-1.001909292E0	1.688527680E0
9.806898458E0	1.278535510E0	1.170635962E-1	-7.708662137E-1	1.497528516E0
9.816906458E0	9.403208622E-1	-2.401580107E-1	-7.163026285E-1	1.206220813E0
9.826914458E0	9.339152375E-1	-4.171707702E-1	-5.759533730E-1	1.173861751E0
9.836923458E0	9.526093706E-1	-6.210292661E-1	-3.929881480E-1	1.203154872E0
9.846931458E0	9.818895954E-1	-8.351268214E-1	-2.508397043E-1	1.313188693E0
9.856939458E0	9.422881579E-1	-9.911387211E-1	-1.296549904E-1	1.373707885E0
9.866948458E0	7.658867249E-1	-1.008114358E0	4.096851647E-2	1.266710485E0
9.876956458E0	4.752435619E-1	-1.083587878E0	3.170813486E-1	1.224973353E0
9.886964458E0	1.417827004E-1	-1.042148076E0	7.842677397E-1	1.311964494E0
9.896972458E0	-4.581860644E-1	-1.079277896E0	1.162355428E0	1.651013442E0
9.906981458E0	-9.720455155E-1	-1.206798652E0	1.402239204E0	2.089858909E0
9.916989458E0	-1.369864048E0	-1.425541821E0	1.332771359E0	2.384318873E0
9.926997458E0	-1.950219205E0	-1.622656138E0	1.235368148E0	2.821790629E0
9.937006458E0	-2.296052483E0	-1.955770259E0	1.150223771E0	3.227988388E0
9.947014458E0	-2.601874141E0	-2.338137817E0	9.731740281E-1	3.630937232E0
9.957022458E0	-2.935201101E0	-2.754303451E0	8.291141295E-1	4.109625682E0
9.967030458E0	-3.114451297E0	-3.070413285E0	7.166809434E-1	4.431802816E0
9.977039458E0	-3.137339053E0	-3.252751104E0	6.672804496E-1	4.568210730E0
9.987047458E0	-2.847363642E0	-3.203298277E0	9.412720580E-1	4.388005544E0
9.997055458E0	-2.326381406E0	-2.793166385E0	9.557559036E-1	3.758629836E0
1.000706525E1	-1.917468073E0	-2.003633228E0	5.566359267E-1	2.828616885E0
1.001707325E1	-1.393419557E0	-8.359752524E-1	5.790409952E-1	1.725039466E0
1.002708125E1	-9.227876937E-1	3.206455189E-1	1.451405663E0	1.749551107E0
1.003708925E1	-7.621687728E-1	1.051558000E0	2.310915228E0	2.650849799E0
1.004709825E1	-9.711140540E-1	1.503807387E0	1.972869565E0	2.663965743E0
1.005710625E1	-1.339431630E0	2.075449900E0	1.212044482E0	2.751476186E0
1.006711425E1	-1.509382999E0	2.995480047E0	2.872623029E-1	3.366549774E0
1.007712325E1	-1.561912630E0	4.283473721E0	-1.140852292E0	4.699921503E0
1.008713125E1	-1.490890303E0	5.616303259E0	-2.527811261E0	6.336832486E0
1.009713925E1	-8.852880380E-1	6.577078559E0	-2.924837788E0	7.252335718E0
1.010714725E1	-1.414631501E-1	6.650462869E0	-1.263804912E0	6.770957913E0
1.011715625E1	4.559047732E-1	5.776937383E0	6.202777527E-1	5.828001302E0
1.012716425E1	1.353752046E0	4.204801773E0	1.282347456E0	4.599719290E0
1.013717225E1	2.022138496E0	2.031868263E0	6.604510479E-1	2.941721999E0
1.014718125E1	2.018031412E0	9.877525985E-2	-1.793779582E-2	2.020526935E0
1.015718925E1	2.090658508E0	-1.527259399E0	-9.181075823E-1	2.747052202E0
1.016719725E1	2.428959402E0	-2.596225730E0	-1.986550587E0	4.072666824E0
1.017720525E1	2.845982530E0	-2.987376975E0	-2.809130453E0	4.991517971E0
1.018721425E1	3.109916197E0	-2.966415877E0	-2.903564740E0	5.186703202E0
1.019722225E1	2.787663571E0	-2.786005885E0	-1.896096500E0	4.373565926E0
1.020723025E1	2.524071089E0	-2.290847291E0	-4.750270687E-1	3.441593656E0
1.021723925E1	2.456931312E0	-1.740017357E0	3.844952135E-1	3.035129066E0
1.022724725E1	2.142787605E0	-1.118139660E0	6.033990338E-1	2.491157445E0
1.023725525E1	1.549128571E0	-3.974995673E-1	4.858080187E-1	1.671470809E0
1.024726325E1	1.052807843E0	4.446187699E-1	6.417441970E-1	1.310696692E0
1.025727225E1	1.094333014E0	1.298379498E0	1.167687650E0	2.060788324E0
1.026728025E1	1.025912405E0	2.109180733E0	1.187800025E0	2.629069898E0
1.027728825E1	6.640472317E-1	3.074540250E0	3.703240478E-1	3.167159038E0
1.028729725E1	2.950241894E-1	3.606899414E0	-2.833420372E-1	3.630020023E0
1.029730525E1	2.092133760E-2	3.525624871E0	-7.164688356E-1	3.597748744E0
1.030731325E1	1.440123899E0	2.526664329E0	-3.241842538E-3	2.908264085E0
1.031732125E1	1.868775093E0	1.168275442E0	7.620373566E-1	2.331928126E0
1.032733025E1	1.210598466E0	6.092839640E-1	8.337063865E-1	1.591176273E0
1.033733825E1	1.342417803E0	2.104459691E-1	8.469843900E-1	1.601173201E0
1.034734625E1	1.156255320E0	-1.946935701E-1	6.063730739E-1	1.320045551E0
1.035735525E1	9.617415521E-1	-5.255559289E-1	3.892111391E-1	1.163031022E0
1.036736325E1	5.627275559E-1	-7.084533262E-1	1.106829683E-1	9.114928070E-1
1.037737125E1	1.454494894E-1	-7.522092104E-1	-2.253908676E-1	7.986083479E-1
1.038737925E1	-8.493753165E-2	-6.133471942E-1	-4.919796087E-1	7.908559289E-1
1.039738825E1	-1.357431114E-3	-3.497950584E-1	-5.166998823E-1	6.239689046E-1
1.040739625E1	1.646461907E-1	-1.669111097E-1	-4.767781636E-1	5.313050950E-1
1.041740425E1	2.104939163E-1	-2.181011438E-2	-5.638215700E-1	6.022276419E-1
1.042741325E1	3.567225471E-1	1.994695759E-1	-4.392517568E-1	5.999843275E-1
1.043742125E1	5.365612659E-1	3.486805791E-1	-2.892092796E-1	7.022237148E-1
1.044742925E1	4.272130707E-1	3.158104563E-1	4.825692460E-2	5.334566363E-1
1.045743725E1	5.138094574E-1	1.966599888E-1	4.542807090E-1	7.134747874E-1
1.046744625E1	5.821587306E-1	-2.057635188E-2	8.073331051E-1	9.955495550E-1
1.047745425E1	6.115585309E-1	-2.043859148E-1	1.107949571E0	1.281924215E0
1.048746225E1	4.494672811E-1	-3.143240941E-1	1.438323103E0	1.539348506E0
1.049747125E1	3.999235305E-1	-3.782587194E-1	1.381045240E0	1.486709267E0
1.050747925E1	2.636541697E-1	-4.129134125E-1	1.323676307E0	1.411428345E0
1.051748725E1	1.048844308E-1	-4.004237598E-1	1.318049678E0	1.381519050E0
1.052749525E1	-6.588145584E-2	-3.508183211E-1	1.394166246E0	1.439136332E0
1.053750425E1	-1.917872116E-1	-3.477765995E-1	1.514850438E0	1.566046854E0
1.054751225E1	-3.264173055E-1	-4.582831281E-1	1.515937436E0	1.616984227E0
1.055752025E1	-3.696025014E-1	-5.224680144E-1	1.429496292E0	1.566217892E0
1.056752925E1	-3.584085917E-1	-5.352652305E-1	1.497846150E0	1.630493384E0
1.057753725E1	-3.558790863E-1	-4.952568269E-1	1.528117771E0	1.645318562E0
1.058754525E1	-1.751021817E-1	-4.729543769E-1	1.497853752E0	1.580478560E0
1.059755325E1	4.123368770E-2	-5.694720268E-1	1.400010538E0	1.511961677E0
1.060756225E1	2.914644045E-1	-7.759459823E-1	1.394648057E0	1.622370756E0
1.061757025E1	3.845976859E-1	-1.039082966E0	1.610857041E0	1.955113602E0
1.062757825E1	6.453428659E-1	-1.288276094E0	1.750052934E0	2.266893906E0
1.063758725E1	7.608057868E-1	-1.525544996E0	1.823971680E0	2.496594815E0
1.064759525E1	8.436099619E-2	-1.726377558E0	1.957301645E0	2.611230740E0
1.065760325E1	-5.981900418E-1	-1.795377626E0	2.191292598E0	2.895336836E0
1.066761125E1	-7.510754353E-1	-1.598329967E0	2.323947794E0	2.918819341E0
1.067762025E1	-4.238629085E-1	-1.194768591E0	2.701715932E0	2.984359350E0
1.068762825E1	1.690476823E-1	-6.627222526E-1	3.265641875E0	3.336494382E0
1.069763625E1	1.045672486E0	-1.289609259E-1	3.560797627E0	3.713400276E0
1.070764425E1	1.717435118E0	2.940032655E-1	3.389985840E0	3.811564679E0
1.071765325E1	1.724558781E0	5.451809388E-1	2.984384370E0	3.489681263E0
1.072766125E1	1.166487655E0	4.197938311E-1	2.688048651E0	2.960156391E0
1.073766925E1	5.120438907E-1	2.408386266E-1	2.636276819E0	2.696321133E0
1.074767825E1	-3.728594005E-1	-3.580484033E-2	2.135851638E0	2.168448371E0
1.075768625E1	-1.327673171E0	-4.581123894E-1	1.492934489E0	2.049740569E0
1.076769425E1	-2.209564854E0	-9.526921088E-1	9.548356980E-1	2.588727546E0
1.077770325E1	-2.793362559E0	-1.262444850E0	5.934625314E-1	3.122313111E0
1.078771125E1	-2.662726991E0	-1.150267771E0	2.690199403E-1	2.913005785E0
1.079771925E1	-1.512384083E0	-7.637668169E-1	-1.228044657E-1	1.698742565E0
1.080772725E1	-2.716595927E-1	-5.278714263E-1	-4.871176489E-1	7.679393081E-1
1.081773625E1	6.044316521E-1	-4.121690619E-1	-8.451946304E-1	1.117843871E0
1.082774425E1	1.301396954E0	-1.379761630E-1	-1.164349621E0	1.751679620E0
1.083775225E1	1.522086952E0	1.224664235E-1	-1.380075626E0	2.058240863E0
1.084776025E1	1.234243729E0	4.193050039E-1	-1.461152533E0	1.958096268E0
1.085776925E1	8.767034483E-1	4.540082288E-1	-1.653621238E0	1.925927207E0
1.086777725E1	7.201933658E-1	2.482031947E-1	-1.692479640E0	1.856009333E0
1.087778525E1	8.133637771E-1	2.906469637E-1	-1.681453838E0	1.890323597E0
1.088779425E1	9.832555050E-1	6.167607987E-1	-1.461269916E0	1.866144431E0
1.089780225E1	8.399308938E-1	1.256081325E0	-1.218073107E0	1.940857103E0
1.090781025E1	1.844901788E-1	2.302530613E0	-9.792275043E-1	2.508898235E0
1.091781825E1	-4.007558817E-1	3.315288244E0	-4.022605164E-1	3.363562835E0
1.092782725E1	-8.713596779E-1	4.110147631E0	-1.817585059E-1	4.205427135E0
1.093783525E1	-1.395884450E0	4.714123492E0	-6.991175155E-1	4.965905658E0
1.094784325E1	-1.385959679E0	4.635356820E0	-1.323827458E0	5.015968123E0
1.095785225E1	-1.252732332E0	3.894549680E0	-1.720331829E0	4.438062314E0
1.096786025E1	-9.782651988E-1	2.951244691E0	-2.065971563E0	3.732972880E0
1.097786825E1	-5.318104032E-1	2.072494133E0	-2.240311561E0	3.097910606E0
1.098787625E1	-2.615433249E-1	1.298847275E0	-2.076238689E0	2.462960871E0
1.099788525E1	-9.525377423E-2	5.912692773E-1	-1.799898985E0	1.896920925E0
1.100789187E1	5.037522465E-2	-5.907325029E-2	-1.417577913E0	1.419702240E0
1.101789987E1	2.723986807E-1	-5.589733511E-1	-1.238272460E0	1.385630158E0
1.102790887E1	4.182855418E-1	-1.186046299E0	-9.778459534E-1	1.593063504E0
1.103791687E1	4.977565116E-1	-1.663720549E0	-6.165269101E-1	1.842778619E0
1.104792487E1	5.727236634E-1	-1.963141844E0	-3.328928044E-1	2.071896695E0
1.105793288E1	3.544479802E-1	-2.196238757E0	5.926445425E-2	2.225446096E0
1.106794187E1	-2.604770851E-1	-1.681548125E0	3.499529332E-1	1.737216009E0
1.107794987E1	3.982743233E-1	-1.107732786E0	3.870301276E-1	1.239147562E0
1.108795787E1	8.795484111E-1	-4.784554374E-1	9.434979469E-2	1.005697219E0
1.109796687E1	7.056133336E-1	-1.478462631E-1	-1.945242932E-1	7.467184173E-1
1.110797488E1	9.083620280E-1	4.294253647E-2	-5.272048438E-1	1.051147270E0
1.111798287E1	1.146280847E0	2.960755187E-1	-8.156386364E-1	1.437667166E0
1.112799087E1	1.520458503E0	6.481007051E-1	-6.041156101E-1	1.759768238E0
1.113799988E1	1.406226713E0	4.076357156E-1	-5.592373529E-1	1.567286465E0
1.114800787E1	1.303344661E0	1.117484772E-1	-5.602948219E-1	1.423068978E0
1.115801587E1	1.284386819E0	1.515890658E-2	-4.959593698E-1	1.376900501E0
1.116802487E1	1.348569658E0	-9.402907491E-2	-3.902238768E-1	1.407038118E0
1.117803287E1	1.431193739E0	-1.891088945E-1	-3.181744856E-1	1.478280317E0
1.118804088E1	1.357863808E0	-2.754985821E-1	-7.892162383E-2	1.387775995E0
1.119804887E1	1.181283450E0	-3.537033373E-1	3.549417776E-1	1.283168074E0
1.120805787E1	8.862820646E-1	-4.350088710E-1	8.370441234E-1	1.294361418E0
1.121806588E1	2.669259793E-1	-5.793906587E-1	1.306996540E0	1.454366862E0
1.122807387E1	-2.484900007E-1	-8.845346242E-1	1.552540129E0	1.804031494E0
1.123808287E1	-6.380972886E-1	-1.193222587E0	1.481170768E0	2.006194192E0
1.124809087E1	-9.929589593E-1	-1.421022508E0	1.196714252E0	2.106513105E0
1.125809887E1	-1.528401361E0	-1.839036446E0	1.063049826E0	2.616895241E0
1.126810688E1	-1.875762223E0	-2.474207203E0	1.025064266E0	3.269700591E0
1.127811587E1	-2.168790758E0	-2.953492361E0	7.873284647E-1	3.747886950E0
1.128812387E1	-2.414320605E0	-3.179298381E0	9.116382229E-1	4.094870746E0
1.129813187E1	-2.906421105E0	-3.189515805E0	1.295049216E0	4.505268825E0
1.130814087E1	-3.115989992E0	-3.028222116E0	1.515535586E0	4.601779104E0
1.131814887E1	-2.789553098E0	-2.586077303E0	1.128020870E0	3.967597937E0
1.132815687E1	-2.055754431E0	-1.813702215E0	4.038934976E-1	2.771059718E0
1.133816487E1	-1.268076595E0	-7.258406067E-1	8.655224025E-2	1.463678287E0
1.134817388E1	-8.235768163E-1	2.159359199E-1	1.019025262E0	1.327900440E0
1.135818187E1	-2.628221110E-1	7.227240407E-1	2.213414953E0	2.343205338E0
1.136818987E1	1.284577730E-1	8.328785670E-1	2.492954546E0	2.631541464E0
1.137819887E1	-4.099722630E-1	7.029639602E-1	1.626130846E0	1.818388604E0
1.138820687E1	-7.628119665E-1	1.320267380E0	8.380572997E-1	1.739921863E0
1.139821488E1	-6.273021591E-1	2.810023908E0	-1.200725734E-1	2.881693909E0
1.140822287E1	-7.471630633E-1	4.807328694E0	-1.622817229E0	5.128566815E0
1.141823187E1	-1.247179816E0	6.743212574E0	-2.412921367E0	7.269701701E0
1.142823988E1	-1.625631201E0	7.493939515E0	-7.078367373E-1	7.700833663E0
1.143824787E1	-1.101168994E0	6.585659348E0	1.752088057E0	6.903136588E0
1.144825687E1	5.156989852E-1	4.482607666E0	2.051997595E0	4.956854957E0
1.145826487E1	1.487538971E0	2.056087430E0	7.530857080E-1	2.647150505E0
1.146827287E1	1.582829875E0	-8.041617215E-2	-3.077044612E-1	1.614465611E0
1.147828088E1	1.658198146E0	-1.798506471E0	-1.423977837E0	2.830540495E0
1.148828987E1	2.101646303E0	-2.876430736E0	-2.645448176E0	4.437247685E0
1.149829787E1	2.993395222E0	-2.962283649E0	-3.625732126E0	5.557110115E0
1.150830588E1	3.425891545E0	-2.336799390E0	-3.477346165E0	5.411959037E0
1.151831487E1	2.988471574E0	-1.377737909E0	-2.189622633E0	3.952666362E0
1.152832287E1	2.746688330E0	-2.628031075E-1	-1.020159183E0	2.941782965E0
1.153833087E1	2.938403328E0	6.024438912E-1	-1.000137001E-1	3.001192347E0
1.154833887E1	2.990757836E0	1.411233684E0	7.664723235E-1	3.394656502E0
1.155834788E1	2.834750029E0	2.170287060E0	1.487124696E0	3.867491889E0
1.156835587E1	2.659172468E0	2.881803743E0	1.847487427E0	4.334651176E0
1.157836387E1	3.117654402E0	3.036819862E0	1.838591327E0	4.724665270E0
1.158837288E1	3.220287947E0	3.061760575E0	9.855353343E-1	4.551473627E0
1.159838087E1	2.751769560E0	2.643402236E0	7.243548292E-1	3.883877059E0
1.160838887E1	1.309995869E0	1.990537804E0	1.804577927E-1	2.389747882E0
1.161839687E1	7.981151158E-1	1.536016189E0	-5.690498579E-1	1.822128210E0
1.162840587E1	1.646888169E0	5.339712417E-1	1.008517523E-1	1.734225188E0
1.163841388E1	1.416063484E0	-3.442787951E-1	8.937936902E-1	1.709570367E0
1.164842187E1	9.670891231E-1	-5.958113945E-1	1.028936877E0	1.532632926E0
1.165843087E1	6.956368142E-1	-7.553608596E-1	1.161414319E0	1.550278628E0
1.166843887E1	3.786797190E-1	-9.877227777E-1	1.149523421E0	1.562177554E0
1.167844687E1	1.210367793E-1	-1.216598001E0	8.421966898E-1	1.484606299E0
1.168845488E1	-6.847937375E-2	-1.254989065E0	2.399766009E-1	1.279560763E0
1.169846387E1	-9.057132393E-2	-1.131684735E0	-2.356930768E-1	1.159510557E0
1.170847187E1	-5.666127384E-2	-8.634536576E-1	-4.530738437E-1	9.767490091E-1
1.171847988E1	-1.593053439E-1	-4.414928484E-1	-4.974381307E-1	6.839143379E-1
1.172848787E1	-1.000441056E-1	-8.308834970E-2	-5.317418446E-1	5.474138162E-1
1.173849687E1	9.204306811E-2	1.575029397E-1	-5.140263891E-1	5.454376510E-1
1.174850487E1	2.003659540E-1	4.100541240E-1	-4.909692098E-1	6.703295198E-1
1.175851287E1	4.445977199E-1	4.564435941E-1	-2.424547970E-1	6.817567130E-1
1.176852187E1	5.785004202E-1	3.127441764E-1	2.430102825E-1	7.010889055E-1
1.177852987E1	6.595624173E-1	3.502891481E-2	7.343247704E-1	9.876651637E-1
1.178853787E1	9.132748586E-1	-1.932218260E-1	1.003951579E0	1.370884537E0
1.179854688E1	1.011695485E0	-3.917540932E-1	1.258628810E0	1.661669494E0
1.180855487E1	1.078104944E0	-4.930541807E-1	1.447442421E0	1.870962922E0
1.181856287E1	1.047152708E0	-5.818587685E-1	1.413882473E0	1.853146531E0
1.182857087E1	7.314855087E-1	-5.867762768E-1	1.290211523E0	1.594999442E0
1.183857987E1	3.636935976E-1	-4.715492910E-1	1.177712263E0	1.319711310E0
1.184858788E1	1.042789516E-1	-3.350413638E-1	1.151492032E0	1.203769378E0
1.185859587E1	7.975017428E-3	-1.768829513E-1	1.256966009E0	1.269375723E0
1.186860387E1	-5.797368139E-2	-1.122987002E-1	1.299466496E0	1.305597610E0
1.187861288E1	-1.333858064E-1	-1.360816652E-1	1.550122597E0	1.561790658E0
1.188862087E1	-3.390396899E-1	-1.578034866E-1	1.694125485E0	1.734909511E0
1.189862887E1	-5.691975001E-1	-1.578081644E-1	1.824324267E0	1.917563100E0
1.190863787E1	-7.842516598E-1	-2.819387054E-1	1.959577966E0	2.129433236E0
1.191864587E1	-1.031079882E0	-4.052442044E-1	1.893935369E0	2.194160379E0
1.192865388E1	-1.210516312E0	-6.028374088E-1	1.921403834E0	2.349586214E0
1.193866187E1	-1.072745094E0	-9.686631936E-1	1.993345637E0	2.462217953E0
1.194867087E1	-7.474960622E-1	-1.382265993E0	1.850413374E0	2.427640684E0
1.195867888E1	-6.982145593E-1	-1.713277456E0	1.517169444E0	2.392619136E0
1.196868687E1	-1.084303285E0	-1.876831679E0	1.120568082E0	2.440058112E0
1.197869587E1	-1.677704457E0	-1.958959331E0	1.076370075E0	2.794778425E0
1.198870387E1	-2.071861756E0	-2.160377199E0	1.308546637E0	3.266823393E0
1.199871187E1	-1.477742546E0	-2.024304889E0	1.690920627E0	3.023366647E0
1.200872021E1	1.219366658E-1	-1.621759760E0	2.387753196E0	2.889003045E0
1.201872921E1	1.499135754E0	-9.796314007E-1	3.294883216E0	3.750112145E0
1.202873721E1	2.328902140E0	-3.189749694E-1	4.122836673E0	4.745873201E0
1.203874521E1	2.618508300E0	2.548158109E-2	4.793868404E0	5.462454513E0
1.204875421E1	2.138371203E0	-1.011720335E-1	4.664434438E0	5.132233024E0
1.205876221E1	1.078453731E0	-5.778890938E-1	3.930655067E0	4.116681614E0
1.206877021E1	5.026822060E-2	-1.448658788E0	3.292370083E0	3.597337896E0
1.207877821E1	-5.876241231E-1	-2.429462555E0	2.646689540E0	3.640406013E0
1.208878721E1	-1.210975611E0	-3.328127561E0	1.729250295E0	3.941218285E0
1.209879521E1	-2.160515778E0	-3.942547134E0	5.973579099E-1	4.535233490E0
1.210880321E1	-2.871667302E0	-4.008801350E0	-3.427363727E-1	4.943119418E0
1.211881221E1	-2.294722826E0	-3.554997189E0	-1.027776205E0	4.354317603E0
1.212882021E1	-5.281155476E-1	-2.582841454E0	-1.242388315E0	2.914361805E0
1.213882821E1	6.176212165E-1	-9.972625101E-1	-1.006473629E0	1.545631795E0
1.214883621E1	1.214442425E0	1.013485610E0	-5.690090735E-1	1.681010057E0
1.215884521E1	1.135212945E0	2.698439153E0	-7.044772196E-1	3.011074633E0
1.216885321E1	4.607100150E-1	4.041563299E0	-9.811388129E-1	4.184390158E0
1.217886121E1	-3.742577621E-1	5.859238113E0	-1.392965813E0	6.034160579E0
1.218887021E1	-1.169041427E0	7.798094131E0	-1.841940904E0	8.097510496E0
1.219887821E1	-1.429222643E0	8.374591588E0	-2.014788546E0	8.731313447E0
1.220888621E1	-8.235882184E-1	6.863622531E0	-1.805863438E0	7.144841115E0
1.221889421E1	-1.560827095E0	5.393838923E0	-1.729907083E0	5.875564489E0
1.222890321E1	-1.708883858E0	4.365078047E0	-1.708219614E0	4.989208820E0
1.223891121E1	-1.715703173E0	3.231791759E0	-1.985286419E0	4.162868905E0
1.224891921E1	-1.425666074E0	2.348654035E0	-1.853049006E0	3.313984030E0
1.225892821E1	-1.117210245E0	1.713262253E0	-1.886735108E0	2.782659815E0
1.226893621E1	-7.464488259E-1	1.236334693E0	-1.618616004E0	2.169245743E0
1.227894421E1	-4.812737954E-1	7.134801775E-1	-1.309036049E0	1.566605824E0
1.228895221E1	-3.685830393E-1	-6.384457827E-2	-9.508324018E-1	1.021768978E0
1.229896121E1	-3.019446614E-1	-9.816907901E-1	-5.078996766E-1	1.145796434E0
1.230896921E1	1.056977785E-1	-1.664665459E0	-1.584115970E-1	1.675523006E0
1.231897721E1	1.016976690E0	-1.937564954E0	-1.394794822E-2	2.188285649E0
1.232898621E1	1.653310166E0	-2.284841616E0	2.373712277E-1	2.830243950E0
1.233899421E1	1.090521214E0	-2.178215885E0	4.379625919E-1	2.475009533E0
1.234900221E1	6.682010937E-1	-1.185599572E0	6.645144242E-1	1.514502713E0
1.235901021E1	1.753482326E0	-6.164801323E-1	6.841017196E-1	1.980591624E0
1.236901921E1	1.537040037E0	-3.568538171E-1	2.189320332E-1	1.593037337E0
1.237902721E1	1.950584949E0	1.373195207E-1	-4.025477609E-1	1.996417540E0
1.238903521E1	2.589969209E0	5.224703532E-1	-1.031715474E0	2.836433076E0
1.239904421E1	2.439671501E0	5.863418287E-1	-1.381873937E0	2.864501589E0
1.240905221E1	2.036185555E0	6.489918208E-1	-1.471000999E0	2.594433644E0
1.241906021E1	1.619597752E0	6.626415610E-1	-1.534204722E0	2.327224709E0
1.242906821E1	1.795285532E0	8.994532102E-1	-1.081953582E0	2.280940546E0
1.243907721E1	1.689552670E0	7.303599197E-1	-6.676918012E-1	1.958015878E0
1.244908521E1	1.492899991E0	3.121185243E-1	-2.331811130E-1	1.542900446E0
1.245909321E1	1.509505206E0	3.282860756E-2	1.030133218E-1	1.513372204E0
1.246910221E1	1.351339484E0	-2.014172834E-1	2.464019600E-1	1.388308773E0
1.247911021E1	1.117091255E0	-4.765159160E-1	3.399474701E-1	1.261160010E0
1.248911821E1	1.109427601E0	-8.019812948E-1	4.740615472E-1	1.448702161E0
1.249912621E1	1.160586061E0	-1.194642876E0	6.308429405E-1	1.781037456E0
1.250913521E1	5.158083281E-1	-1.290177024E0	9.902049208E-1	1.706200683E0
1.251914321E1	1.976180550E-1	-1.434914322E0	1.347468335E0	1.978308096E0
1.252915121E1	-4.258117855E-2	-1.653949267E0	1.274466725E0	2.088450805E0
1.253915921E1	-6.912455553E-1	-1.866487370E0	1.085477698E0	2.267125350E0
1.254916821E1	-1.602784960E0	-2.271552064E0	8.856853563E-1	2.917757180E0
1.255917621E1	-2.117969683E0	-2.507114748E0	8.208666319E-1	3.383081726E0
1.256918421E1	-2.632719957E0	-2.633316958E0	5.675731435E-1	3.766657915E0
1.257919321E1	-2.850698017E0	-2.513063121E0	4.267490941E-1	3.824144378E0
1.258920121E1	-2.983467819E0	-2.405483124E0	8.969598113E-1	3.935983510E0
1.259920921E1	-3.525007697E0	-2.605606418E0	1.266780999E0	4.562849786E0
1.260921821E1	-3.596842203E0	-2.774676905E0	8.806840865E-1	4.627278922E0
1.261922621E1	-2.998226484E0	-2.350366099E0	4.358918005E-1	3.834525331E0
1.262923421E1	-1.789997310E0	-1.167653298E0	9.351568937E-2	2.139217095E0
1.263924221E1	-4.956219855E-1	2.030854940E-1	1.882932079E-1	5.677492427E-1
1.264925121E1	1.380203095E-1	1.230358254E0	1.163781856E0	1.699181935E0
1.265925921E1	1.207438338E-1	1.912780945E0	2.547397971E0	3.187874910E0
1.266926721E1	-1.031732431E-1	2.163578550E0	2.664986063E0	3.434220082E0
1.267927621E1	-3.900455368E-1	2.478543499E0	1.294230899E0	2.823180301E0
1.268928421E1	-6.896501425E-1	3.086259239E0	-6.194364846E-2	3.162981256E0
1.269929221E1	-1.254713661E0	3.957059923E0	-1.318710267E0	4.355643050E0
1.270930021E1	-1.941012764E0	5.040904495E0	-2.504230317E0	5.953941397E0
1.271930921E1	-2.202320739E0	5.508494636E0	-2.038272133E0	6.272820983E0
1.272931721E1	-1.645402976E0	4.924567122E0	4.115010175E-1	5.208459022E0
1.273932521E1	-6.087901667E-1	3.477314005E0	2.622438798E0	4.397672499E0
1.274933421E1	3.839851901E-1	1.766820409E0	2.750456568E0	3.291520973E0
1.275934221E1	1.420553561E0	1.912431282E-1	1.171327396E0	1.851095411E0
1.276935021E1	1.374739457E0	-1.356444688E0	-1.195204793E0	2.271203484E0
1.277935821E1	1.760642826E0	-2.447509986E0	-3.652362685E0	4.736023805E0
1.278936721E1	2.488065104E0	-2.716628671E0	-4.906110386E0	6.135182020E0
1.279937521E1	2.934010608E0	-2.064377612E0	-4.118996807E0	5.462253003E0
1.280938321E1	3.189619593E0	-8.593231845E-1	-2.277923337E0	4.012610648E0
1.281939121E1	3.452968246E0	1.419587016E-1	-6.646487640E-1	3.519218658E0
1.282940021E1	3.695662779E0	1.024903468E0	-6.079496294E-3	3.835151556E0
1.283940821E1	3.599507364E0	1.559503870E0	3.818435012E-1	3.941358908E0
1.284941621E1	3.709720655E0	1.874938935E0	1.173552992E0	4.319102913E0
1.285942521E1	4.065061505E0	2.058719847E0	2.233595449E0	5.074642950E0
1.286943321E1	3.982675406E0	2.474371510E0	2.643136772E0	5.382414863E0
1.287944121E1	3.444427803E0	2.882823497E0	2.331079205E0	5.060502392E0
1.288944921E1	1.942956963E0	2.779751118E0	1.510690729E0	3.712719289E0
1.289945821E1	1.341288705E0	2.533815474E0	7.416514778E-1	2.961304301E0
1.290946621E1	1.948671740E0	1.849363214E0	4.472973794E-1	2.723516255E0
1.291947421E1	2.118581009E0	1.133357624E0	3.751928781E-1	2.431800710E0
1.292948321E1	2.212742524E0	7.368743026E-1	6.338842236E-1	2.416820726E0
1.293949121E1	2.170929377E0	2.924514145E-1	9.885488431E-1	2.403266736E0
1.294949921E1	1.581884965E0	7.587347031E-3	8.805859995E-1	1.810483171E0
1.295950721E1	1.198071683E0	2.294447422E-3	6.526504236E-1	1.364307003E0
1.296951621E1	6.520101535E-1	5.276819766E-2	2.789808914E-1	7.111484098E-1
1.297952421E1	-7.010343790E-2	2.407707989E-2	1.157672685E-1	1.374636615E-1
1.298953221E1	-6.576176333E-1	4.303550720E-4	-6.413556495E-1	9.185848932E-1
1.299954121E1	-7.057621452E-1	-2.610197067E-1	-9.236351015E-1	1.191357752E0
1.300954975E1	-8.718926516E-1	-4.146272314E-1	-7.039541861E-1	1.194848958E0
1.301955775E1	-8.521615148E-1	-2.977957696E-1	-5.247244549E-1	1.044125146E0
1.302956575E1	-5.918674475E-1	-2.618008947E-1	-4.125394830E-1	7.674865529E-1
1.303957475E1	-2.268058938E-1	-3.470234782E-1	-2.383845502E-1	4.782189892E-1
1.304958275E1	2.585667998E-2	-5.748953193E-1	-4.560053453E-2	5.772803520E-1
1.305959075E1	1.905698213E-1	-8.055726546E-1	2.641444588E-1	8.689283364E-1
1.306959975E1	4.583506635E-1	-9.983003908E-1	1.054878488E0	1.522976568E0
1.307960775E1	4.219885835E-1	-1.242119928E0	1.786292222E0	2.216252734E0
1.308961575E1	5.670159039E-1	-1.342414294E0	2.058079723E0	2.521760361E0
1.309962375E1	8.444487450E-1	-1.271916754E0	1.928719870E0	2.459842729E0
1.310963275E1	8.626970279E-1	-1.094984686E0	1.575833389E0	2.103922170E0
1.311964075E1	5.167187396E-1	-8.110053027E-1	1.240782670E0	1.569799188E0
1.312964875E1	1.328844076E-1	-4.856504363E-1	1.054529994E0	1.168566695E0
1.313965775E1	-1.819638893E-1	-2.104190719E-1	1.100730160E0	1.135338685E0
1.314966575E1	-4.210749561E-1	-1.043406397E-1	1.316555129E0	1.386184871E0
1.315967375E1	-6.355695373E-1	-1.254309618E-1	1.631653833E0	1.755555694E0
1.316968175E1	-7.489710224E-1	-1.417955643E-1	1.969963791E0	2.112302277E0
1.317969075E1	-1.080948445E0	-1.295070559E-1	2.449274676E0	2.680329841E0
1.318969875E1	-1.370886434E0	-6.565838456E-2	2.727793930E0	3.053604487E0
1.319970675E1	-1.348161523E0	-2.308363795E-2	2.851125741E0	3.153884959E0
1.320971575E1	-1.386801678E0	-2.888150311E-1	3.028009277E0	3.342973706E0
1.321972375E1	-1.024409232E0	-7.444382608E-1	2.867848193E0	3.134988972E0
1.322973175E1	-5.676345393E-1	-1.278331150E0	2.475258533E0	2.843104694E0
1.323973975E1	-1.158276118E0	-1.809178809E0	2.403212650E0	3.223377509E0
1.324974875E1	-1.459864976E0	-2.441470982E0	2.056076320E0	3.509905432E0
1.325975675E1	-1.335623923E0	-3.076775056E0	1.497802881E0	3.673397539E0
1.326976475E1	-1.365037318E0	-3.429222411E0	1.243023323E0	3.894611689E0
1.327977375E1	-9.381253789E-1	-3.433851652E0	1.360706724E0	3.810897424E0
1.328978175E1	-1.168598208E-1	-2.843709717E0	1.454701885E0	3.196325820E0
1.329978975E1	1.283054238E0	-1.398819460E0	1.981883340E0	2.744227693E0
1.330979775E1	1.814316319E0	-9.901265681E-2	2.502097837E0	3.092254970E0
1.331980675E1	1.296899568E0	1.951046294E-1	2.674850900E0	2.979067244E0
1.332981475E1	4.909728643E-1	1.119285715E-1	2.608737602E0	2.656895601E0
1.333982275E1	-7.287630451E-1	1.438648939E-1	2.335579661E0	2.450862100E0
1.334983175E1	-2.256842516E0	2.337447846E-1	1.865999712E0	2.937674198E0
1.335983975E1	-3.336759513E0	8.661480546E-2	1.129584416E0	3.523836989E0
1.336984775E1	-3.325757976E0	-2.106231397E-1	4.604226974E-1	3.364077479E0
1.337985575E1	-2.250072318E0	-3.489665079E-1	-1.973932296E-1	2.285512447E0
1.338986475E1	-7.490429431E-1	-2.588954133E-1	-8.384373687E-1	1.153719804E0
1.339987275E1	4.280883989E-1	-5.418673217E-2	-1.300482742E0	1.370201168E0
1.340988075E1	1.068138950E0	2.593187517E-1	-1.317105206E0	1.715497932E0
1.341988975E1	1.480807656E0	6.301567698E-1	-1.283568062E0	2.058503301E0
1.342989775E1	1.116030862E0	7.176311159E-1	-1.356246468E0	1.897346512E0
1.343990575E1	4.328717136E-1	8.992479730E-1	-1.361664498E0	1.688240220E0
1.344991375E1	-6.197650981E-1	1.475709761E0	-1.257765177E0	2.035632903E0
1.345992275E1	-7.004233450E-1	2.163897223E0	-1.684210508E0	2.830125278E0
1.346993075E1	-1.165416153E0	3.349594443E0	-1.602744761E0	3.891884956E0
1.347993875E1	-1.855264224E0	4.298078896E0	-1.130217084E0	4.815898482E0
1.348994775E1	-2.323782318E0	4.624680389E0	-1.434107407E0	5.370688691E0
1.349995575E1	-1.806722686E0	4.603940315E0	-1.960126435E0	5.320019636E0
1.350996375E1	-5.166760549E-1	4.403210664E0	-1.868783279E0	4.811192081E0
1.351997175E1	-4.149213463E-2	3.968144490E0	-1.613105296E0	4.283690113E0
1.352998075E1	4.943812063E-1	3.325814987E0	-1.688011637E0	3.762292039E0
1.353998875E1	1.359972898E0	2.430591068E0	-1.832918797E0	3.334200135E0
1.354999675E1	1.775718117E0	1.191719268E0	-1.881281995E0	2.848261152E0
1.356000575E1	1.691633110E0	5.281789899E-2	-1.524624644E0	2.277914093E0
1.357001375E1	1.770221442E0	-7.807401145E-1	-1.263278370E0	2.310651709E0
1.358002175E1	1.966924116E0	-1.517875788E0	-1.095964680E0	2.715488163E0
1.359002975E1	1.617752663E0	-2.879208748E0	-6.947951075E-1	3.374863988E0
1.360003875E1	6.607026243E-1	-3.377349422E0	-2.346414551E-1	3.449358446E0
1.361004675E1	-1.700016555E-1	-1.624831302E0	-2.250178152E-1	1.649124113E0
1.362005475E1	-2.001475605E-1	-1.368659522E0	-6.066220191E-1	1.510390084E0
1.363006375E1	-2.723492718E-1	-1.061802322E0	-7.559026042E-1	1.331535596E0
1.364007175E1	4.764840487E-1	-4.439469248E-1	-1.021859700E0	1.211743854E0
1.365007975E1	6.906742823E-1	-3.959208190E-2	-1.235735646E0	1.416206582E0
1.366008775E1	5.854562679E-1	1.639138269E-1	-1.441959048E0	1.564887434E0
1.367009675E1	3.711689705E-1	3.686868274E-1	-1.678209364E0	1.757863206E0
1.368010475E1	2.221947795E-1	7.156763917E-1	-1.905792938E0	2.047830545E0
1.369011275E1	1.798018813E-2	9.816481054E-1	-1.732514210E0	1.991371833E0
1.370012075E1	3.455394548E-1	1.054837119E0	-1.209953810E0	1.641970488E0
1.371012975E1	4.611614200E-1	7.050338745E-1	-9.036380625E-1	1.235436914E0
1.372013775E1	4.975182375E-1	1.561259204E-1	-6.487225565E-1	8.323104319E-1
1.373014575E1	4.233369514E-1	-4.225572252E-1	-2.051647639E-1	6.323459207E-1
1.374015475E1	3.220772097E-1	-9.152465397E-1	2.919818830E-1	1.013243987E0
1.375016275E1	-2.088859320E-2	-1.362685422E0	9.244292995E-1	1.646790036E0
1.376017075E1	-2.380971596E-1	-1.840375459E0	1.287216871E0	2.258450655E0
1.377017875E1	-3.243181551E-1	-2.294934495E0	1.595461030E0	2.813787928E0
1.378018775E1	-6.418763441E-1	-2.716757310E0	1.774529671E0	3.307828755E0
1.379019575E1	-1.300443858E0	-2.990312862E0	1.612769373E0	3.637877169E0
1.380020375E1	-1.892439359E0	-3.437230757E0	1.446146824E0	4.181772668E0
1.381021275E1	-2.052077994E0	-3.812111540E0	1.002265388E0	4.443844552E0
1.382022075E1	-2.254991580E0	-4.273869669E0	3.192535892E-1	4.842816518E0
1.383022875E1	-2.602484005E0	-4.405898044E0	-4.062505102E-1	5.133215371E0
1.384023675E1	-2.454502964E0	-3.877789806E0	-6.900591552E-1	4.640907262E0
1.385024575E1	-2.959004531E0	-2.869487752E0	1.250057231E-1	4.123747592E0
1.386025375E1	-4.133993453E0	-1.842241890E0	6.388485096E-1	4.570764101E0
1.387026175E1	-4.036185030E0	-4.631369019E-1	7.149498752E-1	4.125098631E0
1.388027075E1	-3.189226660E0	1.230635996E0	9.639135003E-1	3.551726465E0
1.389027875E1	-2.771480232E0	2.725323481E0	1.317099359E0	4.104051836E0
1.390028675E1	-2.163211344E0	4.559970422E0	1.158525209E0	5.178319634E0
1.391029475E1	-9.335071018E-1	7.158625086E0	-2.855902916E-1	7.224881345E0
1.392030375E1	7.556690079E-1	9.792316266E0	-2.973429904E0	1.026166550E1
1.393031175E1	1.887829707E0	1.154805094E1	-3.174218904E0	1.212423388E1
1.394031975E1	1.118985460E0	1.145807281E1	7.163163695E-1	1.153484591E1
1.395032875E1	1.978209242E0	7.937723302E0	3.579751377E0	8.929467114E0
1.396033675E1	2.957615232E0	2.778779896E0	2.814499075E0	4.938674986E0
1.397034475E1	2.456475814E0	-1.099040315E0	2.051353963E0	3.383816798E0
1.398035275E1	2.309491431E0	-3.588912794E0	1.593044668E-1	4.270763822E0
1.399036175E1	1.938356959E0	-4.970222767E0	-1.972335421E0	5.687745517E0
1.400036975E1	2.068625030E0	-5.278517212E0	-2.906070272E0	6.370808261E0
1.401037712E1	2.051504967E0	-4.749443598E0	-3.279404467E0	6.125388215E0
1.402038612E1	1.941162453E0	-3.311782254E0	-3.333162013E0	5.083894410E0
1.403039412E1	1.891763129E0	-1.535185885E0	-3.013913687E0	3.875466313E0
1.404040212E1	1.866131566E0	1.210841417E-2	-1.831530668E0	2.614784546E0
1.405041012E1	1.664502029E0	1.208949258E0	-4.225180489E-1	2.100153998E0
1.406041913E1	1.673136028E0	2.342412717E0	1.225213873E-1	2.881196452E0
1.407042712E1	1.852304656E0	3.114476733E0	7.408936787E-1	3.698637763E0
1.408043512E1	1.932033488E0	3.590725431E0	1.475398397E0	4.336226810E0
1.409044413E1	1.912971565E0	3.741756672E0	1.724724842E0	4.542563041E0
1.410045212E1	2.042559897E0	3.642882594E0	9.423337662E-1	4.281429371E0
1.411046012E1	2.276623939E0	3.227684090E0	-4.194926995E-1	3.972019042E0
1.412046812E1	2.051911933E0	2.041892145E0	-8.585759103E-1	3.019407012E0
1.413047712E1	1.770796516E0	4.731420726E-1	-2.442121777E-1	1.849114196E0
1.414048513E1	1.407018718E0	-5.376772070E-1	-8.825451091E-2	1.508836410E0
1.415049312E1	1.532197958E0	-1.279160870E0	3.127149403E-1	2.020315259E0
1.416050212E1	8.106816593E-1	-1.572540237E0	3.208710752E-1	1.798067239E0
1.417051012E1	5.823244992E-1	-1.535182377E0	3.291593572E-1	1.674584317E0
1.418051812E1	4.579574382E-1	-1.414514557E0	5.764435159E-1	1.594635875E0
1.419052613E1	1.862580845E-1	-1.254324237E0	7.055513531E-1	1.451145780E0
1.420053512E1	-1.471042514E-1	-1.008709604E0	4.428803927E-1	1.111430505E0
1.421054312E1	-2.443954879E-1	-7.401335406E-1	-1.074346939E-1	7.868093962E-1
1.422055113E1	-4.436118793E-1	-5.404844552E-1	-6.042495114E-1	9.241387438E-1
1.423056012E1	-6.537891689E-1	-2.692648655E-1	-8.298855235E-1	1.090254020E0
1.424056812E1	-6.569305855E-1	-3.316189885E-2	-8.396357556E-1	1.066604757E0
1.425057612E1	-3.713025793E-1	1.263442969E-1	-6.688128586E-1	7.753316237E-1
1.426058412E1	-6.421821535E-2	3.592751491E-1	-3.875604701E-1	5.323586478E-1
1.427059313E1	1.355498609E-1	5.684581196E-1	-1.074618834E-1	5.941939540E-1
1.428060112E1	5.580328265E-1	3.740972561E-1	2.868195225E-1	7.304894461E-1
1.429060912E1	6.225504193E-1	1.261513388E-1	7.523333175E-1	9.846261247E-1
1.430061813E1	6.458775938E-1	-9.635802090E-2	1.091603680E0	1.272022535E0
1.431062612E1	6.926377773E-1	-3.200192821E-1	1.192388189E0	1.415609065E0
1.432063412E1	7.043696308E-1	-5.242929304E-1	1.138580942E0	1.437840817E0
1.433064212E1	5.615689301E-1	-6.529492164E-1	9.990125817E-1	1.318987673E0
1.434065112E1	1.038982978E-1	-6.670240492E-1	9.365185641E-1	1.154462195E0
1.435065913E1	-2.679331622E-1	-5.513889277E-1	1.125039960E0	1.281223181E0
1.436066712E1	-4.303243741E-1	-4.179367554E-1	1.362678405E0	1.488872941E0
1.437067612E1	-5.669963157E-1	-2.728316671E-1	1.804408797E0	1.910971754E0
1.438068413E1	-6.285034695E-1	-3.223914975E-1	2.100812783E0	2.216386076E0
1.439069212E1	-9.288796154E-1	-4.328494942E-1	2.449626824E0	2.655343218E0
1.440070012E1	-1.093304489E0	-6.309660244E-1	2.621562300E0	2.909642886E0
1.441070912E1	-1.341849746E0	-7.845940143E-1	2.515742315E0	2.957212861E0
1.442071712E1	-1.409617221E0	-1.067757711E0	2.442588969E0	3.015521201E0
1.443072513E1	-1.120095554E0	-1.570056925E0	2.644256514E0	3.272886388E0
1.444073412E1	-9.582838011E-1	-2.122840413E0	2.718293374E0	3.579647766E0
1.445074212E1	-5.135472098E-1	-2.669348670E0	2.201954995E0	3.498250829E0
1.446075012E1	-3.134505200E-1	-3.267867326E0	1.632687036E0	3.666452651E0
1.447075812E1	-1.032543440E0	-3.571591002E0	1.379845245E0	3.965650154E0
1.448076712E1	-1.255314755E0	-3.519646677E0	1.411731282E0	3.994585470E0
1.449077512E1	-9.647338647E-1	-3.103230783E0	1.761231056E0	3.696307286E0
1.450078312E1	-4.450839159E-1	-2.167591494E0	2.076606479E0	3.034608219E0
1.451079213E1	5.983970332E-1	-1.134641672E0	2.308390108E0	2.640862667E0
1.452080012E1	1.647318524E0	1.772443092E-1	2.854443451E0	3.300442589E0
1.453080812E1	1.867235813E0	7.728837955E-1	3.124895886E0	3.721410115E0
1.454081612E1	1.060913838E0	6.443076164E-1	3.054811159E0	3.297353741E0
1.455082512E1	-2.027943027E-1	2.622061068E-1	2.580104372E0	2.601310466E0
1.456083312E1	-1.649574965E0	-1.578906101E-1	1.992858564E0	2.591816402E0
1.457084112E1	-3.004042417E0	-7.088491827E-1	1.124761486E0	3.285091537E0
1.458085012E1	-3.593769199E0	-1.378209779E0	1.556452793E-1	3.852124700E0
1.459085813E1	-2.831178257E0	-1.643125486E0	-6.438609622E-1	3.336163759E0
1.460086612E1	-1.210466318E0	-1.520274315E0	-1.246332262E0	2.308637436E0
1.461087412E1	4.553753078E-2	-1.374675137E0	-1.461891183E0	2.007219776E0
1.462088312E1	1.040556757E0	-9.191214895E-1	-1.309588757E0	1.908550599E0
1.463089112E1	1.572889316E0	1.453278673E-1	-1.024330002E0	1.882645198E0
1.464089913E1	1.458135078E0	1.324894867E0	-3.335206492E-1	1.998184260E0
1.465090812E1	7.290995523E-1	1.923304179E0	2.496708459E-1	2.071960582E0
1.466091612E1	-1.348134041E-2	2.756224262E0	2.163725607E-1	2.764737060E0
1.467092413E1	-8.205263239E-1	3.964292929E0	-6.758779031E-1	4.104350474E0
1.468093212E1	-1.560843759E0	5.368645610E0	-1.303849715E0	5.740959241E0
1.469094112E1	-2.933180888E0	6.381419029E0	-1.680104593E0	7.221413323E0
1.470094912E1	-3.212907007E0	6.874339308E0	-2.287756746E0	7.925474325E0
1.471095712E1	-2.202116379E0	6.716962668E0	-2.899794163E0	7.640399873E0
1.472096613E1	-1.597911014E0	6.022025766E0	-3.147513793E0	6.980326426E0
1.473097412E1	-6.727394101E-1	4.825435767E0	-2.990307600E0	5.716585362E0
1.474098212E1	9.652583599E-2	3.385416825E0	-2.863606330E0	4.435155638E0
1.475099013E1	5.619802818E-1	1.965915179E0	-2.611101924E0	3.316398285E0
1.476099912E1	1.047869577E0	7.629943997E-1	-2.311455218E0	2.650097419E0
1.477100712E1	1.049235194E0	-3.936041522E-1	-1.594934196E0	1.949264941E0
1.478101512E1	9.315032610E-1	-1.419141458E0	-7.672128734E-1	1.862867788E0
1.479102412E1	1.759669849E0	-2.781723384E0	-5.973337170E-1	3.345329660E0
1.480103213E1	1.858369095E0	-4.962906146E0	-4.265029263E-1	5.316566360E0
1.481104012E1	-1.892617992E-1	-3.454420987E0	8.617354533E-1	3.565309576E0
1.482104812E1	2.421750078E-1	-1.692391786E0	1.280389370E0	2.135939051E0
1.483105713E1	-9.292102754E-2	-1.473215924E0	4.282538751E-1	1.537010363E0
1.484106512E1	7.013969064E-1	-7.650935501E-1	-6.501834834E-1	1.224771131E0
1.485107312E1	1.192614184E0	-3.145679229E-1	-1.498365968E0	1.940716915E0
1.486108212E1	1.837457406E0	5.190339446E-2	-1.807375235E0	2.577896220E0
1.487109012E1	1.896294721E0	2.369736171E-1	-1.984504062E0	2.755058354E0
1.488109813E1	1.275570387E0	3.205923092E-1	-2.078423794E0	2.459614748E0
1.489110612E1	9.480394793E-1	5.631780839E-1	-2.203860311E0	2.464335342E0
1.490111512E1	1.106267766E0	9.556010985E-1	-1.720322181E0	2.257545179E0
1.491112312E1	8.321903497E-1	9.085748667E-1	-1.020560448E0	1.599872712E0
1.492113112E1	9.242418963E-1	4.861205524E-1	-4.965853143E-1	1.156344779E0
1.493114012E1	1.189652862E0	-1.450074399E-1	-2.355726242E-1	1.221390826E0
1.494114812E1	1.359689893E0	-5.664063317E-1	6.347854257E-2	1.474314167E0
1.495115612E1	1.407954273E0	-9.559525162E-1	2.409690195E-1	1.718792168E0
1.496116413E1	1.171887267E0	-1.432079008E0	5.022711468E-1	1.917406153E0
1.497117312E1	6.271974939E-1	-2.049108194E0	7.462652233E-1	2.269170084E0
1.498118112E1	5.616107377E-1	-2.505364092E0	1.278042882E0	2.868039306E0
1.499118912E1	4.828367561E-2	-2.899189269E0	1.799929098E0	3.412825001E0
1.500119812E1	-9.383854339E-1	-3.358672246E0	2.003454303E0	4.021824912E0
1.501120637E1	-1.696925717E0	-3.631744233E0	2.005178939E0	4.482171978E0
1.502121437E1	-2.479623479E0	-3.803171732E0	1.810309076E0	4.887726135E0
1.503122237E1	-3.185986718E0	-4.029545517E0	8.295234346E-1	5.203446701E0
1.504123137E1	-3.113340619E0	-3.735570903E0	-4.969241604E-1	4.888180991E0
1.505123937E1	-3.286124379E0	-3.202231745E0	-1.224553723E0	4.748940240E0
1.506124737E1	-4.224596644E0	-2.979224787E0	-1.249471048E0	5.318286852E0
1.507125637E1	-4.656067365E0	-2.501207891E0	-7.841046023E-1	5.343203557E0
1.508126438E1	-4.575859646E0	-1.500890796E0	-1.142996174E-1	4.817076819E0
1.509127237E1	-3.701735697E0	-2.696852803E-1	1.447650728E-1	3.714368620E0
1.510128037E1	-2.673850734E0	1.085055529E0	4.369583327E-1	2.918519459E0
1.511128937E1	-2.107668643E0	2.047224221E0	1.704423602E0	3.396829983E0
1.512129737E1	-2.131266544E0	2.919081497E0	3.861698853E0	5.289239255E0
1.513130538E1	-1.846201332E0	3.500325138E0	4.549146057E0	6.029549343E0
1.514131437E1	-1.678987044E0	3.632455840E0	1.681972632E0	4.340825366E0
1.515132237E1	-1.270707258E0	4.612250962E0	-1.698831325E0	5.076769026E0
1.516133038E1	-5.495578721E-1	6.246388108E0	-3.091753576E0	6.991303056E0
1.517133837E1	8.689251897E-1	7.570488338E0	-3.962482339E0	8.588864358E0
1.518134737E1	2.535091336E0	8.706309979E0	-2.312703599E0	9.358157910E0
1.519135537E1	1.631315572E0	8.630307285E0	1.531706792E0	8.915689543E0
1.520136337E1	1.488138018E0	6.527474290E0	3.739393812E0	7.668477127E0
1.521137238E1	2.964105349E0	2.793805486E0	2.479624649E0	4.768627477E0
1.522138037E1	2.973724896E0	-1.575006008E-1	-4.307819188E-2	2.978204481E0
1.523138837E1	3.235141921E0	-2.368741559E0	-2.096662137E0	4.524717885E0
1.524139738E1	2.675474798E0	-4.196969427E0	-2.873866440E0	5.747332084E0
1.525140537E1	2.193285913E0	-4.789392360E0	-2.486747142E0	5.825177562E0
1.526141337E1	2.372230008E0	-4.157864419E0	-2.558041073E0	5.427604063E0
1.527142137E1	3.304072408E0	-2.850343384E0	-2.852813247E0	5.213434118E0
1.528143037E1	3.356912526E0	-1.283538095E0	-2.647484469E0	4.463799476E0
1.529143838E1	3.022845308E0	2.639567631E-1	-1.190599234E0	3.259569522E0
1.530144637E1	3.158681975E0	1.834589639E0	7.994514969E-1	3.739266460E0
1.531145537E1	2.952009214E0	3.120064332E0	2.283101339E0	4.864330536E0
1.532146338E1	2.848978936E0	4.151088665E0	3.508635786E0	6.136671994E0
1.533147137E1	1.749131413E0	4.708582671E0	3.217973034E0	5.965363519E0
1.534147937E1	8.115490937E-1	4.556155114E0	1.379343408E0	4.829052660E0
1.535148837E1	1.646555462E-1	3.904419195E0	-4.753527586E-1	3.936694164E0
1.536149637E1	-2.889486399E-1	2.777881179E0	-1.482990714E0	3.162179093E0
1.537150438E1	1.092689654E-1	1.283771399E0	-1.605371184E0	2.058452173E0
1.538151337E1	9.700428441E-1	5.008607984E-2	-1.095313300E0	1.463968224E0
1.539152137E1	1.484095838E0	-9.345312417E-1	-3.476802666E-1	1.787951528E0
1.540152937E1	1.534567249E0	-1.780087742E0	2.525769120E-1	2.363769047E0
1.541153737E1	1.149014713E0	-2.391998860E0	4.020954788E-1	2.683947490E0
1.542154637E1	6.987653670E-1	-2.919134122E0	3.622483121E-1	3.023382360E0
1.543155437E1	2.692294899E-1	-3.261854049E0	1.643067598E-1	3.277067754E0
1.544156237E1	9.964094013E-2	-3.359728253E0	1.886633366E-1	3.366496117E0
1.545157138E1	-3.703763804E-1	-3.128496602E0	2.069563508E-1	3.157134869E0
1.546157937E1	-6.571220818E-1	-2.449741284E0	2.038355456E-1	2.544521707E0
1.547158737E1	-4.164033231E-1	-1.530963610E0	2.256434673E-1	1.602546810E0
1.548159537E1	-5.778364688E-2	-5.455592537E-1	1.546585616E-1	5.699939647E-1
1.549160437E1	8.248725593E-2	5.043936861E-1	-3.802736700E-2	5.125067986E-1
1.550161237E1	1.446911055E-1	1.151962295E0	-2.085861160E-1	1.179601972E0
1.551162037E1	2.256116000E-1	1.454842218E0	-1.148197272E-1	1.476702422E0
1.552162937E1	5.170643100E-1	1.301967934E0	1.937838896E-1	1.414223532E0
1.553163738E1	7.961451888E-1	9.715897250E-1	5.577166383E-1	1.374365892E0
1.554164537E1	5.332192898E-1	4.386054933E-1	9.921438575E-1	1.208737781E0
1.555165337E1	1.390748549E-1	-3.804081559E-2	1.142902034E0	1.151960927E0
1.556166237E1	8.358711720E-2	-3.416183120E-1	1.208393334E0	1.258532609E0
1.557167037E1	-4.467769772E-2	-5.953617436E-1	1.417420769E0	1.538029043E0
1.558167838E1	-6.371129099E-1	-7.573185074E-1	1.892521951E0	2.135669337E0
1.559168737E1	-9.893216988E-1	-8.108369029E-1	2.150966105E0	2.502572495E0
1.560169537E1	-1.034735561E0	-9.027370065E-1	2.375722258E0	2.744024058E0
1.561170338E1	-1.230256805E0	-1.036984400E0	2.611987485E0	3.067791889E0
1.562171137E1	-1.262402165E0	-1.113778222E0	2.762310044E0	3.234890714E0
1.563172037E1	-1.198270196E0	-1.199404263E0	2.826676778E0	3.296137688E0
1.564172837E1	-1.356110520E0	-1.276078802E0	2.725656772E0	3.301002528E0
1.565173637E1	-1.394836337E0	-1.492979513E0	2.612093319E0	3.316261109E0
1.566174538E1	-1.263652300E0	-1.900237498E0	2.737206193E0	3.563708381E0
1.567175337E1	-9.196205494E-1	-2.290762507E0	2.717128608E0	3.670978438E0
1.568176137E1	-6.089918956E-1	-2.755398050E0	2.397503428E0	3.702851905E0
1.569177038E1	-5.027278143E-1	-3.390950630E0	2.074162928E0	4.006673593E0
1.570177837E1	-1.439656122E0	-3.847729855E0	1.904818792E0	4.528351732E0
1.571178637E1	-1.675448309E0	-4.340972316E0	1.241197822E0	4.815780281E0
1.572179437E1	-9.827368569E-1	-4.454505948E0	1.112105919E0	4.695228913E0
1.573180337E1	9.881768140E-1	-3.643581921E0	1.485438944E0	4.056933755E0
1.574181138E1	2.885886853E0	-2.038500175E0	2.107832950E0	4.114217500E0
1.575181937E1	3.677024779E0	-8.867296690E-1	2.579572860E0	4.578318127E0
1.576182837E1	3.282868942E0	-3.273668933E-1	2.663151206E0	4.239902348E0
1.577183638E1	2.197255881E0	-3.298765182E-1	2.516954443E0	3.357351872E0
1.578184437E1	5.056452826E-1	-5.680189937E-1	2.215507672E0	2.342391294E0
1.579185237E1	-1.613380115E0	-8.192194712E-1	1.484144955E0	2.340256863E0
1.580186137E1	-2.911660210E0	-1.051332883E0	4.987867179E-1	3.135578767E0
1.581186937E1	-3.020631845E0	-1.003298591E0	-3.854705290E-1	3.206152263E0
1.582187738E1	-1.979103281E0	-5.224551505E-1	-8.234592873E-1	2.206330524E0
1.583188637E1	-3.968291840E-1	5.118138027E-1	-8.737593752E-1	1.087603887E0
1.584189437E1	8.209251040E-1	1.886456780E0	-5.073966698E-1	2.118982914E0
1.585190237E1	1.238619492E0	2.946530666E0	-2.874425434E-1	3.209181270E0
1.586191037E1	8.345152026E-1	3.956754114E0	-5.595990032E-1	4.082336315E0
1.587191937E1	-2.835297328E-1	5.511406549E0	-1.159031578E0	5.639090836E0
1.588192737E1	-1.604593504E0	7.223034505E0	-1.754679543E0	7.604330876E0
1.589193537E1	-2.585259277E0	8.382876508E0	-2.345128310E0	9.080518205E0
1.590194438E1	-4.143071840E0	8.166562273E0	-2.639366195E0	9.530164612E0
1.591195237E1	-4.369164374E0	7.315217614E0	-3.098938926E0	9.066720936E0
1.592196037E1	-3.053406951E0	6.131976809E0	-3.543703877E0	7.712475008E0
1.593196938E1	-2.178641854E0	4.955860836E0	-3.513316482E0	6.453714408E0
1.594197737E1	-1.146426736E0	3.987569525E0	-3.177882185E0	5.226274023E0
1.595198538E1	-1.672514176E-1	2.845881958E0	-2.782067785E0	3.983330054E0
1.596199337E1	6.910599062E-1	1.516250262E0	-2.269174587E0	2.815267652E0
1.597200237E1	9.075211984E-1	1.082828325E-1	-1.616692270E0	1.857152065E0
1.598201038E1	9.638208219E-1	-1.281836556E0	-1.016885766E0	1.898976617E0
1.599201837E1	1.373058967E0	-2.604239924E0	-4.106932247E-1	2.972545279E0
1.600202737E1	1.153151618E0	-3.809887844E0	-4.524110618E-1	4.006205163E0
1.601203521E1	1.255615886E0	-4.532046459E0	-2.832981831E-1	4.711292203E0
1.602204321E1	1.051680207E0	-4.062453062E0	-2.048279643E-3	4.196374666E0
1.603205121E1	3.293795049E-1	-2.755536044E0	4.959432900E-1	2.819118567E0
1.604206021E1	1.304286063E0	-1.722426594E0	4.429265857E-4	2.160535976E0
1.605206821E1	1.783942811E0	-7.825112361E-1	-6.410662124E-1	2.050790500E0
1.606207621E1	1.717200060E0	-1.680343598E-1	-1.171717697E0	2.085649528E0
1.607208521E1	1.695631436E0	1.070794755E-1	-1.611087714E0	2.341417435E0
1.608209321E1	1.323077845E0	2.609577262E-1	-2.124160422E0	2.516086528E0
1.609210121E1	1.119248000E0	6.181483430E-1	-2.453550452E0	2.766718866E0
1.610210921E1	7.640436825E-1	8.410570675E-1	-2.497658046E0	2.743981679E0
1.611211821E1	6.240306419E-1	1.229522102E0	-2.258702223E0	2.646294499E0
1.612212621E1	7.905134431E-1	1.464503573E0	-1.678844957E0	2.363937945E0
1.613213421E1	8.296316081E-1	1.123912616E0	-1.028787773E0	1.734898400E0
1.614214321E1	1.024324301E0	6.838236845E-1	-3.752763471E-1	1.287512113E0
1.615215121E1	1.345978757E0	2.536785275E-1	2.466390646E-1	1.391704867E0
1.616215921E1	1.331298153E0	-3.956161791E-1	7.016231936E-1	1.556001940E0
1.617216821E1	1.050447029E0	-1.014942151E0	1.174296904E0	1.874171751E0
1.618217621E1	7.224845973E-1	-1.681286754E0	1.666006810E0	2.474729851E0
1.619218421E1	3.256969285E-1	-2.272757176E0	2.141683943E0	3.139795181E0
1.620219221E1	-1.472369832E-1	-3.169265728E0	2.323800445E0	3.932680065E0
1.621220121E1	-6.895337829E-1	-3.692343607E0	2.234197127E0	4.370411302E0
1.622220921E1	-1.772523491E0	-3.982076651E0	2.074705842E0	4.827336565E0
1.623221721E1	-2.614955239E0	-4.203310733E0	1.883004584E0	5.296368405E0
1.624222621E1	-3.178634137E0	-4.481033011E0	6.068269640E-1	5.527351155E0
1.625223421E1	-2.652339120E0	-4.106835768E0	-8.874395210E-1	4.968757564E0
1.626224221E1	-3.205565535E0	-3.931476016E0	-1.777221437E0	5.375004195E0
1.627225021E1	-4.256225988E0	-3.801977731E0	-1.235182499E0	5.839192593E0
1.628225921E1	-4.225709662E0	-2.823513435E0	-3.705073580E-1	5.095696808E0
1.629226721E1	-4.109759668E0	-1.395835041E0	3.501324427E-1	4.354431389E0
1.630227521E1	-3.046875318E0	3.325656527E-1	1.079205390E0	3.249420470E0
1.631228421E1	-2.138976974E0	1.727748730E0	2.480591778E0	3.703197772E0
1.632229221E1	-1.774620010E0	2.366361158E0	3.820804888E0	4.831924182E0
1.633230021E1	-1.778987588E0	2.547094501E0	4.265814545E0	5.277277798E0
1.634230921E1	-1.446499996E0	2.695799720E0	2.705232448E0	4.083868382E0
1.635231721E1	-2.336450896E-1	3.844270642E0	-5.640808940E-2	3.851777339E0
1.636232521E1	9.838972369E-1	5.966738588E0	-3.615511486E0	7.045704113E0
1.637233321E1	1.380838687E0	8.580401300E0	-5.478450472E0	1.027343280E1
1.638234221E1	1.826974810E0	1.127777392E1	-3.109554546E0	1.184041178E1
1.639235021E1	1.879662608E0	1.207050317E1	1.449413078E0	1.230166560E1
1.640235821E1	1.396138220E0	8.272656493E0	4.521746004E0	9.530594646E0
1.641236721E1	2.516748913E0	3.040853271E0	2.450953119E0	4.646287217E0
1.642237521E1	2.588513253E0	-8.805848300E-1	-7.123934725E-1	2.825479599E0
1.643238321E1	2.374418913E0	-3.740824626E0	-2.646132885E0	5.160780300E0
1.644239121E1	2.378056466E0	-5.176453478E0	-2.870846061E0	6.379073622E0
