"Time (s)","Linear Acceleration x (m/s^2)","Linear Acceleration y (m/s^2)","Linear Acceleration z (m/s^2)","Absolute acceleration (m/s^2)"
2.670000074E-3,-5.606531831E-1,-4.772819012E-1,1.642955332E0,1.800397797E0
1.267900004E-2,-1.942818165E-1,-6.972369048E-1,1.761218192E0,1.904146592E0
2.268800000E-2,1.490839359E-1,-8.377887663E-1,1.652939453E0,1.859119380E0
3.269700008E-2,5.535527264E-1,-8.387830853E-1,1.241890132E0,1.597582169E0
4.270600004E-2,8.864458597E-1,-8.088333544E-1,5.230521512E-1,1.309038277E0
5.271500000E-2,9.787245706E-1,-8.266123983E-1,-2.508917445E-1,1.305425796E0
6.272400008E-2,1.090292954E0,-9.101027441E-1,-9.584358287E-1,1.713366560E0
7.273300004E-2,1.169662840E0,-1.015011441E0,-1.535750141E0,2.181029087E0
8.274200000E-2,1.235778623E0,-1.088540470E0,-1.847302070E0,2.474791728E0
9.275100008E-2,1.291854005E0,-1.164539948E0,-1.867687218E0,2.552115908E0
1.027600000E-1,1.305673315E0,-1.297577552E0,-1.653216611E0,2.474189862E0
1.127690000E-1,1.208719024E0,-1.467445891E0,-1.343391949E0,2.327896272E0
1.227780001E-1,1.085089370E0,-1.573437785E0,-1.169188777E0,2.240564170E0
1.327880000E-1,8.938471922E-1,-1.575797721E0,-1.130322334E0,2.135352392E0
1.427970000E-1,7.357796308E-1,-1.502065501E0,-1.115244704E0,2.010309226E0
1.528060001E-1,6.647203924E-1,-1.403104008E0,-9.999621695E-1,1.846748060E0
1.628150000E-1,5.555916139E-1,-1.369935677E0,-8.028642243E-1,1.682259422E0
1.728240000E-1,4.327456696E-1,-1.340290001E0,-6.765006316E-1,1.562465746E0
1.828330001E-1,2.955128704E-1,-1.293687400E0,-6.801469553E-1,1.491158887E0
1.928420000E-1,2.605631488E-1,-1.219686793E0,-7.930689687E-1,1.478001156E0
2.028510000E-1,2.929982388E-1,-1.085580609E0,-9.250634301E-1,1.456047931E0
2.128600001E-1,3.324011267E-1,-9.197313541E-1,-1.045746453E0,1.431775791E0
2.228690000E-1,3.947078142E-1,-7.677873623E-1,-1.307406430E0,1.566717353E0
2.328776250E-1,5.720730876E-1,-6.239327011E-1,-1.694127824E0,1.893839676E0
2.428866250E-1,6.310440116E-1,-4.474242640E-1,-2.142958928E0,2.278305946E0
2.528956251E-1,5.070638902E-1,-2.835417196E-1,-2.579037255E0,2.643660882E0
2.629046250E-1,3.597693850E-1,-1.248450708E-1,-2.806323205E0,2.832043473E0
2.729136250E-1,2.250909785E-1,-1.326177746E-2,-2.816514317E0,2.825525566E0
2.829226251E-1,1.565328135E-1,7.278204739E-2,-2.549259140E0,2.555097241E0
2.929316250E-1,1.133530263E-1,1.422507700E-1,-2.087649531E0,2.095558339E0
3.029406250E-1,1.509015063E-1,2.757096666E-1,-1.577520896E0,1.608527047E0
3.129496251E-1,1.944164121E-1,3.956354749E-1,-1.175562242E0,1.255496617E0
3.229586250E-1,2.612687250E-1,4.987034681E-1,-9.500678784E-1,1.104352964E0
3.329676250E-1,2.268050898E-1,6.258935648E-1,-8.529690152E-1,1.082007137E0
3.429766251E-1,2.299036755E-1,7.727633429E-1,-7.879199106E-1,1.127313918E0
3.529856250E-1,1.908279028E-1,8.669681266E-1,-7.385571313E-1,1.154779484E0
3.629946250E-1,9.638089813E-2,9.158514342E-1,-6.940785313E-1,1.153177408E0
3.730036251E-1,2.878438085E-2,8.829792649E-1,-4.470892185E-1,9.901361987E-1
3.830126250E-1,-3.563410163E-2,8.525395373E-1,-2.496527195E-2,8.536490594E-1
3.930216250E-1,-1.076680709E-1,8.273535329E-1,2.524359941E-1,8.716824038E-1
4.030306251E-1,-1.040941796E-1,7.761512196E-1,4.038233310E-1,8.810900048E-1
4.130396250E-1,-2.767940328E-2,8.392926702E-1,4.609196377E-1,9.579275797E-1
4.230486250E-1,2.039026424E-2,9.240395826E-1,4.416127163E-1,1.024346965E0
4.330576251E-1,-7.668126315E-2,9.741136757E-1,4.862275565E-1,1.091418667E0
4.430666250E-1,-1.707147235E-1,9.458456039E-1,6.355964345E-1,1.152280457E0
4.530756250E-1,-1.833449285E-1,1.008728023E0,8.867752773E-1,1.355550803E0
4.630846251E-1,-8.123251654E-2,1.165351834E0,9.353288019E-1,1.496490423E0
4.730936250E-1,6.977365494E-2,1.336035567E0,7.484646535E-1,1.532990129E0
4.831026250E-1,2.376062127E-1,1.586501342E0,4.970437360E-1,1.679433147E0
4.931116251E-1,3.003148963E-1,1.757371894E0,3.291795301E-1,1.812982121E0
5.031216250E-1,2.691729911E-1,1.627597620E0,2.477740091E-1,1.668208641E0
5.131306250E-1,6.078049108E-2,1.240568077E0,3.148497587E-1,1.281340623E0
5.231396251E-1,-2.844440181E-1,7.899778381E-1,5.314516765E-1,9.936872086E-1
5.331486251E-1,-6.233899333E-1,2.776322311E-1,1.170867512E0,1.355221530E0
5.431576250E-1,-8.507064351E-1,-2.679898801E-1,2.221820911E0,2.394161267E0
5.531666251E-1,-8.139421398E-1,-7.771926087E-1,3.467062082E0,3.645140552E0
5.631756251E-1,-5.168136106E-1,-9.905101454E-1,4.789854875E0,4.918426210E0
5.731846250E-1,-2.066738572E-1,-1.075515505E0,5.700775060E0,5.805022306E0
5.831936251E-1,-1.010846177E-1,-1.199237033E0,5.944301067E0,6.064907480E0
5.932026251E-1,-8.855359599E-2,-1.147878307E0,5.480276558E0,5.599901561E0
6.032116250E-1,-2.352783631E-1,-9.127719980E-1,4.163747302E0,4.269110004E0
6.132206251E-1,-7.030961072E-1,-6.740728676E-1,2.419070299E0,2.607799739E0
6.232296251E-1,-1.205424922E0,-5.787992129E-1,7.319567943E-1,1.524407597E0
6.332386250E-1,-1.605106305E0,-5.402914971E-1,-5.281175941E-1,1.774031946E0
6.432476251E-1,-1.943258387E0,-5.891090235E-1,-1.224223355E0,2.371081067E0
6.532566251E-1,-2.177186190E0,-7.113816118E-1,-1.362329326E0,2.664984934E0
6.632656250E-1,-2.302834376E0,-8.023865068E-1,-9.777854347E-1,2.627343644E0
6.732746251E-1,-2.175564611E0,-9.139893883E-1,-3.273891127E-1,2.382360512E0
6.832836251E-1,-1.809182902E0,-9.939377832E-1,7.771066546E-2,2.065694565E0
6.932926250E-1,-1.369140163E0,-1.025293185E0,1.509224832E-2,1.710555079E0
7.033016251E-1,-9.099575870E-1,-1.006196471E0,-4.417740995E-1,1.426751030E0
7.133106251E-1,-5.926603299E-1,-9.859966797E-1,-9.504666585E-1,1.492254197E0
7.233196250E-1,-3.679288821E-1,-9.581709498E-1,-1.411011490E0,1.744825680E0
7.333286251E-1,-1.433834488E-1,-8.920266616E-1,-1.833519598E0,2.044031432E0
7.433376251E-1,1.893869296E-2,-8.153106076E-1,-2.146980643E0,2.296653205E0
7.533466250E-1,6.796774238E-2,-7.126156667E-1,-2.367828224E0,2.473671604E0
7.633556251E-1,1.033923675E-1,-5.491321948E-1,-2.429348534E0,2.492783675E0
7.733646251E-1,1.411221112E-1,-3.848792294E-1,-2.353917114E0,2.389345778E0
7.833736250E-1,2.428148393E-1,-3.089888021E-1,-2.233027099E0,2.267342751E0
7.933826251E-1,3.491863632E-1,-3.141802526E-1,-2.147627345E0,2.198395679E0
8.033916251E-1,3.828861328E-1,-2.743151057E-1,-2.078340763E0,2.131044555E0
8.134006250E-1,2.920272721E-1,-1.686544570E-1,-2.118267306E0,2.144943037E0
8.234096251E-1,1.513938419E-1,-1.425521940E-2,-2.332702830E0,2.337653910E0
8.334186251E-1,5.261141919E-3,1.532604924E-1,-2.630696821E0,2.635162655E0
8.434276250E-1,2.661214024E-4,3.550353330E-1,-2.846674256E0,2.868728721E0
8.534366251E-1,9.500771608E-2,5.504945961E-1,-2.883801736E0,2.937410972E0
8.634456251E-1,1.630270967E-1,7.190645608E-1,-2.766268609E0,2.862843637E0
8.734546250E-1,2.324432309E-1,9.030562645E-1,-2.445739449E0,2.617476251E0
8.834636251E-1,1.680443366E-1,1.032842525E0,-1.984146212E0,2.243176046E0
8.934726251E-1,1.363296602E-2,1.083746338E0,-1.481390331E0,1.835540601E0
9.034826250E-1,-2.373478023E-1,1.090613016E0,-9.177117258E-1,1.444979426E0
9.134916251E-1,-5.517131558E-1,1.080723327E0,-3.146632326E-1,1.253540293E0
9.235006251E-1,-7.873866445E-1,1.070775167E0,1.800954115E-1,1.341257449E0
9.335096250E-1,-8.927700620E-1,1.119320213E0,4.947218066E-1,1.514815431E0
9.435186251E-1,-8.156615867E-1,1.166262830E0,5.579810786E-1,1.528664678E0
9.535276251E-1,-8.106405826E-1,1.226447928E0,4.377956539E-1,1.533941886E0
9.635366250E-1,-7.756107907E-1,1.304256242E0,3.912722826E-1,1.567083419E0
9.735456251E-1,-6.668018550E-1,1.357754757E0,3.160917073E-1,1.545327364E0
9.835546251E-1,-6.041376103E-1,1.358773927E0,2.383576530E-1,1.506009033E0
9.935636250E-1,-5.486850290E-1,1.277030729E0,3.836673939E-1,1.441895771E0
1.003572625E0,-5.298613069E-1,1.138435931E0,8.957028061E-1,1.542424355E0
1.013581625E0,-4.900931142E-1,9.695250732E-1,1.580047477E0,1.917477551E0
1.023590625E0,-4.233902707E-1,7.492706922E-1,2.087360094E0,2.257817099E0
1.033599625E0,-4.064894055E-1,6.165868440E-1,2.377233471E0,2.489307524E0
1.043608625E0,-3.540309641E-1,6.171981704E-1,2.381610112E0,2.485626325E0
1.053617625E0,-2.884917897E-1,7.770180693E-1,2.116295625E0,2.272815823E0
1.063626625E0,-1.814240817E-1,1.014601551E0,1.783225942E0,2.059666421E0
1.073635625E0,-6.533262156E-2,1.230478706E0,1.511753753E0,1.950319360E0
1.083644625E0,-5.591798309E-2,1.353995875E0,1.351011456E0,1.913547387E0
1.093653625E0,-1.841722365E-1,1.324781723E0,1.039060162E0,1.693697744E0
1.103662625E0,-3.275396420E-1,1.038371360E0,7.258996636E-1,1.308597577E0
1.113671625E0,-3.774223849E-1,6.435577109E-1,7.743280578E-1,1.075266537E0
1.123680625E0,-4.641198919E-1,2.103167456E-1,1.405985223E0,1.495471449E0
1.133689625E0,-5.770644171E-1,-2.072750241E-1,2.379796890E0,2.457518975E0
1.143698625E0,-5.158120191E-1,-5.924983621E-1,3.330945919E0,3.422326264E0
1.153707625E0,-3.939220215E-1,-9.149711359E-1,3.886160095E0,4.011805955E0
1.163716625E0,-1.876940510E-1,-1.062087082E0,3.955522690E0,4.099928997E0
1.173725625E0,3.426821763E-1,-1.095963510E0,3.221361496E0,3.419903065E0
1.183734625E0,9.097766156E-1,-1.010588022E0,1.949828904E0,2.377144168E0
1.193743625E0,1.159846826E0,-8.748449108E-1,5.966393602E-1,1.570533923E0
1.203752625E0,1.254770379E0,-7.491976020E-1,-5.468994355E-1,1.560398905E0
1.213761625E0,1.305720970E0,-6.931385913E-1,-1.367831556E0,2.014028680E0
1.223770625E0,1.300155005E0,-7.271088678E-1,-1.813091766E0,2.346570283E0
1.233779500E0,1.214973791E0,-8.207087570E-1,-1.777617878E0,2.304267670E0
1.243788500E0,1.079416255E0,-1.016371503E0,-1.242507598E0,1.934418677E0
1.253797500E0,9.318754363E-1,-1.301638444E0,-3.271482074E-1,1.633915670E0
1.263806500E0,7.758630981E-1,-1.526215964E0,5.911207581E-1,1.811276474E0
1.273815500E0,5.128792385E-1,-1.698436638E0,1.328818349E0,2.216639422E0
1.283824500E0,2.156112898E-1,-1.763893586E0,1.860517362E0,2.572806574E0
1.293833500E0,-1.148952294E-2,-1.690793157E0,2.078455954E0,2.679345566E0
1.303842500E0,-1.028033702E-1,-1.538070609E0,1.840688869E0,2.400909254E0
1.313851500E0,-1.353796338E-1,-1.374514924E0,1.124156445E0,1.780827514E0
1.323860500E0,-1.754791444E-1,-1.214048323E0,2.206090146E-1,1.246344494E0
1.333869500E0,-7.736487575E-2,-1.016206612E0,-6.721503031E-1,1.220838741E0
1.343878500E0,-3.668031469E-3,-8.345102325E-1,-1.460142134E0,1.681795420E0
1.353887500E0,4.666834574E-2,-6.592566079E-1,-2.155234573E0,2.254292189E0
1.363896500E0,1.390016916E-1,-4.356099647E-1,-2.717198190E0,2.755402605E0
1.373905500E0,2.237157134E-1,-2.069686300E-1,-3.075099828E0,3.090165641E0
1.383915500E0,2.656924360E-1,-2.529417783E-2,-3.269739604E0,3.280614172E0
1.393924500E0,2.158829295E-1,1.181473777E-1,-3.388990059E0,3.397913751E0
1.403933500E0,1.750176895E-1,1.710819286E-1,-3.312951697E0,3.321979706E0
1.413942500E0,1.875697611E-1,1.828047189E-1,-3.217307621E0,3.227951101E0
1.423951500E0,2.610826374E-1,2.241272843E-1,-2.997872143E0,3.017554402E0
1.433960500E0,2.474512428E-1,2.147869420E-1,-2.577738588E0,2.598480667E0
1.443969500E0,2.046094977E-1,1.727501392E-1,-2.165542629E0,2.182036328E0
1.453978500E0,1.552209176E-1,2.095010591E-1,-1.829718323E0,1.848202740E0
1.463987500E0,1.639830434E-1,3.269587576E-1,-1.515482522E0,1.558999597E0
1.473996500E0,2.734116378E-1,5.050839499E-1,-1.411200939E0,1.523598310E0
1.484005500E0,2.949501490E-1,6.284587383E-1,-1.573478715E0,1.719823027E0
1.494014500E0,3.654087321E-1,6.202594802E-1,-1.857265141E0,1.991903403E0
1.504023500E0,5.741550618E-1,5.274305463E-1,-1.842927768E0,2.001054666E0
1.514032500E0,7.938027211E-1,5.066390169E-1,-1.303688185E0,1.608231556E0
1.524041500E0,9.433405837E-1,4.808896333E-1,-4.074760866E-1,1.134540902E0
1.534050500E0,9.229433028E-1,4.557074296E-1,4.526312095E-1,1.124441467E0
1.544059500E0,7.220592123E-1,5.059841287E-1,1.127949534E0,1.431663227E0
1.554068500E0,4.504739524E-1,5.322857818E-1,1.604351429E0,1.749342289E0
1.564077500E0,4.088892125E-2,5.926401570E-1,1.859053804E0,1.951659629E0
1.574086500E0,-2.598213930E-1,6.634765434E-1,1.869219773E0,2.000422666E0
1.584095500E0,-3.566422210E-1,7.302324504E-1,1.698530778E0,1.882933857E0
1.594104500E0,-2.910722756E-1,7.559040660E-1,1.360435998E0,1.583319339E0
1.604113500E0,-4.066943139E-2,8.257879409E-1,1.122118691E0,1.393818525E0
1.614122500E0,3.661611226E-1,9.800439218E-1,9.498708272E-1,1.413086920E0
1.624131500E0,6.896274845E-1,1.087202335E0,8.118829697E-1,1.522087034E0
1.634140500E0,7.122214182E-1,1.091416715E0,5.876036578E-1,1.429590100E0
1.644149500E0,5.183811761E-1,9.807707307E-1,3.584717417E-1,1.165818279E0
1.654158500E0,7.764217995E-2,8.403270426E-1,3.887375146E-1,9.291365357E-1
1.664167500E0,-4.849540329E-1,6.489008966E-1,6.591145205E-1,1.044358530E0
1.674176500E0,-8.707916940E-1,2.983667502E-1,9.246909624E-1,1.304742989E0
1.684185500E0,-1.143606843E0,-7.551971376E-2,1.518373386E0,1.902366310E0
1.694194500E0,-1.289567452E0,-3.191737747E-1,2.423873786E0,2.764058654E0
1.704203500E0,-1.217714454E0,-5.044109353E-1,3.235680742E0,3.493835822E0
1.714212500E0,-9.488319232E-1,-6.156328708E-1,3.810275515E0,3.974605056E0
1.724221500E0,-6.733827500E-1,-7.338659102E-1,4.101138241E0,4.220348134E0
1.734230500E0,-4.380641873E-1,-7.985577500E-1,3.900814387E0,4.005739331E0
1.744239500E0,-2.898803937E-1,-7.423990443E-1,3.116599272E0,3.216889492E0
1.754248500E0,-4.185500553E-1,-6.539540604E-1,1.939130253E0,2.088795395E0
1.764257500E0,-7.657504848E-1,-6.138684735E-1,7.788181347E-1,1.252903027E0
1.774266500E0,-1.099591415E0,-6.219750533E-1,-1.464435160E-1,1.271770400E0
1.784275500E0,-1.460872452E0,-6.991951373E-1,-8.365167046E-1,1.822850064E0
1.794284500E0,-1.798659376E0,-8.328943545E-1,-1.048371853E0,2.242314005E0
1.804293500E0,-2.005109358E0,-1.076232666E0,-6.124297661E-1,2.356652394E0
1.814302500E0,-2.056113450E0,-1.342264021E0,2.464683259E-1,2.467796965E0
1.824311500E0,-2.021104270E0,-1.536419647E0,1.045137758E0,2.745498267E0
1.834320500E0,-1.838619247E0,-1.684728425E0,1.423154987E0,2.871271621E0
1.844329500E0,-1.489562985E0,-1.782286295E0,1.379255846E0,2.701423516E0
1.854338500E0,-1.023935973E0,-1.821824582E0,9.417934835E-1,2.292261907E0
1.864347500E0,-6.072715717E-1,-1.714665877E0,2.979127139E-1,1.843260648E0
1.874356500E0,-3.044375487E-1,-1.462880970E0,-4.088390726E-1,1.549145681E0
1.884365500E0,-2.268632696E-1,-1.174286087E0,-1.097956241E0,1.623552483E0
1.894374500E0,-2.504495488E-1,-9.038701969E-1,-1.755104928E0,1.989999904E0
1.904383500E0,-2.709571959E-1,-6.942109707E-1,-2.309603990E0,2.426853367E0
1.914392500E0,-2.661628445E-1,-4.415805566E-1,-2.749585918E0,2.797509386E0
1.924401500E0,-2.811395372E-1,-2.273529008E-1,-3.058100218E0,3.079400222E0
1.934410500E0,-2.984457607E-1,-7.557409286E-2,-3.274232605E0,3.288674576E0
1.944419500E0,-4.192157608E-1,1.006805751E-1,-3.397786610E0,3.425030260E0
1.954428500E0,-5.178168467E-1,2.804999980E-1,-3.379404134E0,3.430333341E0
1.964438500E0,-4.788232273E-1,3.884702969E-1,-3.282780649E0,3.340184073E0
1.974447500E0,-3.474697669E-1,3.880630383E-1,-3.150236549E0,3.193010880E0
1.984456500E0,-1.141347990E-1,4.296753332E-1,-2.984315373E0,3.017248066E0
1.994465500E0,4.910265125E-2,5.278088611E-1,-2.716884195E0,2.768113616E0
2.004474500E0,1.231394380E-1,6.551968861E-1,-2.488679647E0,2.576426336E0
2.014483500E0,1.143208867E-1,8.124755850E-1,-2.342109831E0,2.481665631E0
2.024492500E0,-5.272631697E-2,9.542047834E-1,-2.246066975E0,2.440922713E0
2.034501500E0,-2.389933915E-1,1.081548370E0,-2.125936514E0,2.397179755E0
2.044510500E0,-3.099944501E-1,1.119025221E0,-1.871482061E0,2.202443895E0
2.054519500E0,-2.822719967E-1,1.135892099E0,-1.308400456E0,1.755517045E0
2.064528500E0,-3.440668336E-1,1.234116844E0,-5.964504951E-1,1.413216036E0
2.074537500E0,-5.565370356E-1,1.283404486E0,7.926719427E-2,1.401122349E0
2.084546500E0,-7.853820728E-1,1.268099107E0,5.264517224E-1,1.581787521E0
2.094555500E0,-1.023808723E0,1.332231368E0,7.927649134E-1,1.857821554E0
2.104564500E0,-1.176436839E0,1.442075700E0,8.687278461E-1,2.053843721E0
2.114573500E0,-1.314520737E0,1.528580285E0,8.573684603E-1,2.190799656E0
2.124582500E0,-1.213987731E0,1.466805914E0,7.081481016E-1,2.031442722E0
2.134591500E0,-9.595849527E-1,1.382328850E0,5.076932698E-1,1.757665721E0
2.144600500E0,-6.872676214E-1,1.267668460E0,3.847467899E-1,1.492430970E0
2.154609500E0,-5.041651330E-1,1.140425446E0,4.045957482E-1,1.310896792E0
2.164618500E0,-4.917744080E-1,1.029689999E0,7.055332267E-1,1.341596324E0
2.174627500E0,-5.790889790E-1,9.556630790E-1,1.183174732E0,1.627433074E0
2.184636500E0,-6.253143981E-1,8.971140316E-1,1.719322307E0,2.037621377E0
2.194645500E0,-5.459900108E-1,9.325455272E-1,2.162672231E0,2.417622268E0
2.204654500E0,-4.753196853E-1,1.081758285E0,2.377183185E0,2.654643042E0
2.214663500E0,-4.286806122E-1,1.319527415E0,2.287706752E0,2.675541412E0
2.224672500E0,-2.935407142E-1,1.573312654E0,1.852693788E0,2.448255120E0
2.234681750E0,-2.460545257E-1,1.682627521E0,1.252536158E0,2.112019183E0
2.244690750E0,-3.411358436E-1,1.581218382E0,7.387506741E-1,1.778307565E0
2.254699750E0,-5.818283629E-1,1.300248561E0,4.125812906E-1,1.483035362E0
2.264708750E0,-9.800925998E-1,7.836382869E-1,6.434515840E-1,1.410212895E0
2.274717750E0,-1.252134747E0,5.587833166E-2,1.664255569E0,2.083437163E0
2.284726750E0,-1.051743650E0,-5.235883409E-1,3.105478452E0,3.320287017E0
2.294735750E0,-6.967862307E-1,-9.245371807E-1,4.354792210E0,4.506050959E0
2.304744750E0,-3.005907021E-1,-1.287776157E0,4.959874365E0,5.133135096E0
2.314753750E0,2.132060742E-1,-1.464386044E0,4.723352153E0,4.949741294E0
2.324762750E0,7.106679592E-1,-1.403228261E0,3.538905067E0,3.872718370E0
2.334771750E0,8.473714757E-1,-1.182247071E0,1.919136869E0,2.408076593E0
2.344780750E0,7.519387036E-1,-9.886618406E-1,4.073983186E-1,1.307225091E0
2.354789750E0,7.422457011E-1,-8.172667935E-1,-6.974833649E-1,1.305885423E0
2.364798750E0,7.784083910E-1,-6.825624400E-1,-1.379790282E0,1.725002124E0
2.374807750E0,7.467099041E-1,-6.628447518E-1,-1.629943523E0,1.911453566E0
2.384816750E0,6.595552544E-1,-8.509616661E-1,-1.404905242E0,1.770002156E0
2.394825750E0,5.373468028E-1,-1.148644000E0,-7.156869167E-1,1.456136116E0
2.404834750E0,4.493469746E-1,-1.349009369E0,6.556482911E-3,1.421893797E0
2.414843750E0,3.339946391E-1,-1.498427656E0,5.627705330E-1,1.635098936E0
2.424852750E0,1.578578291E-1,-1.661219402E0,9.010962778E-1,1.896455509E0
2.434861750E0,-6.628608316E-2,-1.699688526E0,9.550625700E-1,1.950763810E0
2.444870750E0,-2.462172245E-1,-1.614651592E0,7.889735788E-1,1.813891395E0
2.454879750E0,-3.774069994E-1,-1.436201879E0,3.039376849E-1,1.515747340E0
2.464888750E0,-4.560705052E-1,-1.266933465E0,-3.823254579E-1,1.399747643E0
2.474897750E0,-4.613292351E-1,-1.072306845E0,-1.144510018E0,1.634799625E0
2.484906750E0,-4.263194700E-1,-8.552155155E-1,-2.000383345E0,2.216906718E0
2.494915750E0,-3.400290388E-1,-6.561391649E-1,-2.951276851E0,3.042395997E0
2.504924750E0,-3.300967025E-1,-5.500525466E-1,-3.740128223E0,3.794743833E0
2.514933750E0,-2.544693634E-1,-3.303349400E-1,-4.165944101E0,4.186760810E0
2.524942750E0,-1.606595225E-1,-1.188820803E-1,-4.518523019E0,4.522940935E0
2.534951750E0,-6.011237361E-2,-2.341634452E-2,-4.720907432E0,4.721348198E0
2.544960750E0,-3.235483691E-3,1.140347385E-1,-4.417134054E0,4.418606979E0
2.554969750E0,1.935344327E-2,1.353864312E-1,-3.784737216E0,3.787207392E0
2.564978750E0,1.051590306E-1,3.082593620E-2,-2.844113760E0,2.846224120E0
2.574987750E0,-3.654129714E-2,-1.303446695E-1,-1.792610139E0,1.797714134E0
2.584996750E0,-8.885743193E-2,-2.237998402E-1,-1.105432491E0,1.131354500E0
2.595005750E0,-2.895348233E-1,-2.260676828E-1,-6.008516943E-1,7.042441123E-1
2.605014750E0,-3.999271119E-1,-1.166633543E-1,-3.488881552E-1,5.433921033E-1
2.615023750E0,-3.691786513E-1,8.471387565E-2,-4.046068579E-1,5.542346315E-1
2.625032750E0,-2.686733466E-1,2.961872005E-1,-7.399581242E-1,8.411006185E-1
2.635041750E0,4.242213428E-2,4.925869882E-1,-1.169788701E0,1.269979206E0
2.645050750E0,2.135334451E-1,6.522855574E-1,-1.427421700E0,1.583857851E0
2.655059750E0,2.685358639E-1,7.540657014E-1,-1.488300571E0,1.689900938E0
2.665068750E0,2.950292326E-1,7.809780961E-1,-1.278064517E0,1.526570648E0
2.675077750E0,2.764681236E-1,7.674523169E-1,-8.567890012E-1,1.183006794E0
2.685086750E0,1.333925307E-1,7.026429480E-1,-3.608749473E-1,8.010813986E-1
2.695095750E0,-4.402587935E-2,6.855725867E-1,1.480941850E-1,7.027659192E-1
2.705104750E0,-1.643532452E-1,6.043527147E-1,6.396064550E-1,8.951818867E-1
2.715113750E0,-2.732533975E-1,5.157244205E-1,1.504753466E0,1.613977104E0
2.725122750E0,-2.178762453E-1,3.934708357E-1,2.607773396E0,2.646275013E0
2.735131750E0,-7.110192306E-2,1.831725088E-1,3.402719906E0,3.408388242E0
2.745140750E0,1.210710586E-1,9.385950565E-3,3.532209420E0,3.534296208E0
2.755149750E0,2.218379532E-1,2.418466866E-2,3.228978079E0,3.236679844E0
2.765158750E0,2.301688468E-1,2.894362977E-1,2.674362073E0,2.699808061E0
2.775167750E0,5.761005767E-2,6.133413470E-1,2.001892512E0,2.094535785E0
2.785176750E0,-1.692107465E-1,8.760754573E-1,1.308516231E0,1.583778776E0
2.795185750E0,-4.604174349E-1,9.538711998E-1,6.352765918E-1,1.235083328E0
2.805194750E0,-8.925946455E-1,9.619333407E-1,2.319245464E-1,1.332602697E0
2.815203750E0,-1.277965406E0,1.020881461E0,7.272883773E-2,1.637279457E0
2.825212750E0,-1.640301134E0,9.752687931E-1,2.036930197E-1,1.919173748E0
2.835221750E0,-1.962182609E0,6.183012477E-1,6.548893225E-1,2.159012980E0
2.845230750E0,-2.118853782E0,5.517929703E-2,1.482739869E0,2.586716765E0
2.855239750E0,-1.874461218E0,-3.565848452E-1,2.391838061E0,3.059680852E0
2.865248750E0,-1.407931323E0,-6.947132465E-1,3.023544343E0,3.406863293E0
2.875257750E0,-9.960546946E-1,-9.261059886E-1,3.372657031E0,3.636566060E0
2.885266750E0,-6.530388980E-1,-1.017773373E0,3.378882562E0,3.588756025E0
2.895275750E0,-5.563888087E-1,-1.116682534E0,2.941636546E0,3.195273691E0
2.905284750E0,-7.459494737E-1,-1.127442873E0,2.166190501E0,2.553419146E0
2.915293750E0,-1.101039332E0,-1.101657821E0,1.156152409E0,1.939748942E0
2.925302750E0,-1.648329508E0,-1.131125742E0,9.814609945E-2,2.001516492E0
2.935311750E0,-2.226872613E0,-1.166358432E0,-6.664135998E-1,2.600665436E0
2.945320750E0,-2.702556470E0,-1.125737825E0,-9.559700578E-1,3.079768802E0
2.955329750E0,-2.893183594E0,-1.078684696E0,-1.024484807E0,3.253250851E0
2.965338750E0,-2.659252575E0,-9.649890956E-1,-1.014790708E0,3.005433146E0
2.975347750E0,-2.236029060E0,-8.690766326E-1,-9.655413651E-1,2.585998894E0
2.985357750E0,-1.720739087E0,-8.497302425E-1,-8.647084701E-1,2.104924044E0
2.995365750E0,-1.148879496E0,-7.863921793E-1,-7.233356595E-1,1.568933151E0
3.005375750E0,-5.339873216E-1,-8.103719030E-1,-4.632018059E-1,1.075360867E0
3.015384750E0,-5.410410371E-2,-9.060335205E-1,-3.891672850E-1,9.875602109E-1
3.025393750E0,1.968423488E-1,-8.735349883E-1,-4.979155558E-1,1.024563413E0
3.035401750E0,2.131269906E-1,-7.090484266E-1,-8.772203422E-1,1.147906056E0
3.045411750E0,1.996890292E-1,-5.007140332E-1,-1.473980740E0,1.569461523E0
3.055420750E0,1.892072373E-1,-2.400635782E-1,-2.133365402E0,2.155151465E0
3.065429750E0,1.828497425E-1,-1.113470659E-2,-2.828547302E0,2.834473117E0
3.075438750E0,2.634787898E-1,2.278740339E-1,-3.423951731E0,3.441626520E0
3.085446750E0,3.728963841E-1,4.763127252E-1,-3.917394167E0,3.963824237E0
3.095456750E0,4.244472646E-1,6.233229826E-1,-4.235815405E0,4.302420152E0
3.105465750E0,3.810911838E-1,7.049116677E-1,-4.316083642E0,4.389841564E0
3.115474750E0,4.447554851E-1,7.841440710E-1,-4.077602028E0,4.176066051E0
3.125483750E0,4.790759001E-1,7.560348974E-1,-3.699926861E0,3.806646984E0
3.135492750E0,4.659525555E-1,7.207283860E-1,-3.218160730E0,3.330633525E0
3.145501750E0,4.335238975E-1,7.383562794E-1,-2.532508036E0,2.673333111E0
3.155510750E0,3.878608343E-1,7.002474900E-1,-1.822560162E0,1.990604963E0
3.165519750E0,3.780176680E-1,6.759343287E-1,-1.353253863E0,1.559192288E0
3.175528750E0,2.540901715E-1,7.369950476E-1,-1.133603792E0,1.375783803E0
3.185537750E0,7.658909641E-2,8.006647941E-1,-1.013786157E0,1.294099059E0
3.195546750E0,-2.041070757E-1,9.104965541E-1,-8.832979381E-1,1.284865332E0
3.205555750E0,-4.302985002E-1,9.994771430E-1,-7.270585817E-1,1.308711404E0
3.215564750E0,-6.952918285E-1,1.032785661E0,-4.926811284E-1,1.338959164E0
3.225573750E0,-9.093488187E-1,1.082067456E0,-1.354922658E-1,1.419909648E0
3.235582875E0,-1.055159885E0,1.139947436E0,3.903630406E-1,1.601632244E0
3.245591875E0,-1.118204711E0,1.159904714E0,1.007980456E0,1.900469763E0
3.255600875E0,-1.006386944E0,1.098334995E0,1.595098795E0,2.182543152E0
3.265609875E0,-8.057441242E-1,9.499500570E-1,2.182734028E0,2.513156689E0
3.275618875E0,-5.413731224E-1,8.017305954E-1,2.744317576E0,2.909834319E0
3.285627875E0,-2.202680489E-1,6.446490937E-1,3.089399779E0,3.163618413E0
3.295636875E0,-1.113114344E-1,5.318539649E-1,3.050966615E0,3.098976631E0
3.305645875E0,-1.965344563E-1,5.110143422E-1,2.743907686E0,2.797997649E0
3.315654875E0,-4.274648664E-1,5.678172648E-1,2.481838989E0,2.581601717E0
3.325663875E0,-6.345156498E-1,7.197500007E-1,2.433131683E0,2.615488474E0
3.335672875E0,-6.274503860E-1,9.116468476E-1,2.344670327E0,2.592734638E0
3.345681875E0,-4.924078441E-1,1.127065435E0,2.258112239E0,2.571344564E0
3.355690875E0,-4.287497190E-1,1.335954583E0,2.154455139E0,2.571046074E0
3.365699875E0,-5.540747731E-1,1.456231809E0,2.113961416E0,2.626107920E0
3.375708875E0,-9.544557752E-1,1.356390748E0,2.145783718E0,2.712041566E0
3.385717875E0,-1.428223646E0,1.066635923E0,2.369471877E0,2.965119213E0
3.395726875E0,-1.672110865E0,7.157051893E-1,2.791361350E0,3.331649268E0
3.405735875E0,-1.450772848E0,2.727496599E-1,3.403168972E0,3.709540846E0
3.415744875E0,-1.037210322E0,-8.922149420E-2,4.041985468E0,4.173896531E0
3.425753875E0,-7.000171097E-1,-3.435299130E-1,4.465251376E0,4.532825455E0
3.435762875E0,-5.597903533E-1,-4.967490363E-1,4.388787337E0,4.452143207E0
3.445771875E0,-3.144088056E-1,-5.477724248E-1,3.690460804E0,3.744116514E0
3.455780875E0,-4.894371662E-2,-6.216955563E-1,2.607624292E0,2.681157456E0
3.465789875E0,1.963903225E-1,-7.691231588E-1,1.440827027E0,1.645023439E0
3.475798875E0,4.238022436E-1,-8.617623505E-1,3.213068390E-1,1.012660247E0
3.485807875E0,4.708183160E-1,-8.660433894E-1,-5.990741408E-1,1.153512404E0
3.495816875E0,3.720959369E-1,-8.068347761E-1,-1.214602931E0,1.504891366E0
3.505825875E0,2.521198425E-1,-8.512125117E-1,-1.411231345E0,1.667243553E0
3.515834875E0,7.352131817E-2,-9.956410772E-1,-1.180681479E0,1.546193809E0
3.525843875E0,-4.779872216E-2,-1.238142360E0,-6.556091148E-1,1.401821862E0
3.535852875E0,-6.892979208E-2,-1.410988978E0,-1.528625894E-1,1.420918078E0
3.545861875E0,-7.962862529E-2,-1.546755478E0,1.486549330E-1,1.555921436E0
3.555870875E0,-1.205260981E-1,-1.620436243E0,3.748322511E-1,1.667584892E0
3.565879875E0,-1.419593594E-1,-1.611211967E0,4.047559619E-1,1.667328358E0
3.575888875E0,-2.085162418E-1,-1.538127327E0,1.100352430E-1,1.556092044E0
3.585897875E0,-4.192904224E-1,-1.486735564E0,-3.701989174E-1,1.588469179E0
3.595906875E0,-5.404841994E-1,-1.346108565E0,-8.224746162E-1,1.667511899E0
3.605915875E0,-4.527596655E-1,-1.188347763E0,-1.358928586E0,1.861141752E0
3.615924875E0,-3.841476696E-1,-1.046567110E0,-1.977904894E0,2.270458085E0
3.625933875E0,-3.486787153E-1,-8.841305816E-1,-2.557358703E0,2.728249854E0
3.635942875E0,-2.850828264E-1,-7.432606316E-1,-3.079529679E0,3.180756455E0
3.645951875E0,-2.380048832E-1,-6.148964140E-1,-3.494230585E0,3.555895289E0
3.655960875E0,-1.121002603E-1,-4.397582719E-1,-3.745116482E0,3.772512594E0
3.665969875E0,-1.130471438E-2,-2.952428752E-1,-3.714328553E0,3.726061292E0
3.675978875E0,6.262623779E-3,-2.240132636E-1,-3.492510334E0,3.499692786E0
3.685987875E0,6.611099560E-2,-1.399162692E-1,-3.278488793E0,3.282138935E0
3.695996875E0,8.117747962E-2,-1.067485231E-1,-3.029034879E0,3.032002198E0
3.706005875E0,7.030834626E-2,-8.211244941E-3,-2.862095702E0,2.862970921E0
3.716014875E0,7.622377334E-2,9.927665859E-2,-2.642960771E0,2.645922817E0
3.726023875E0,1.486149526E-1,2.217217398E-1,-2.396433388E0,2.411252769E0
3.736032875E0,3.241645925E-1,2.956752768E-1,-2.341833258E0,2.382580441E0
3.746041875E0,5.548951375E-1,3.437826589E-1,-2.435731940E0,2.521683012E0
3.756050875E0,8.077881646E-1,3.598841366E-1,-2.507994754E0,2.659337511E0
3.766059875E0,9.834828155E-1,4.262342468E-1,-2.474112478E0,2.696320945E0
3.776068875E0,1.085363385E0,5.945203292E-1,-2.197307628E0,2.521830469E0
3.786077875E0,1.229158844E0,5.890175146E-1,-1.589616446E0,2.093956432E0
3.796086875E0,1.435542898E0,4.417825779E-1,-9.298938149E-1,1.766538357E0
3.806095875E0,1.415080275E0,3.813326007E-1,-2.824953604E-1,1.492538229E0
3.816104875E0,1.162687696E0,3.820944929E-1,2.779099739E-1,1.255019057E0
3.826113875E0,7.578913884E-1,4.716378763E-1,6.891604382E-1,1.127733901E0
3.836122875E0,3.532787564E-1,5.638089985E-1,1.098856713E0,1.284590418E0
3.846131875E0,-3.047333813E-1,5.335154513E-1,1.564237191E0,1.680577032E0
3.856140875E0,-8.404030564E-1,5.191772014E-1,2.122838659E0,2.341423976E0
3.866149875E0,-9.837161194E-1,5.280404109E-1,2.713846566E0,2.934533568E0
3.876158875E0,-7.584843691E-1,4.779198325E-1,3.050487728E0,3.179493872E0
3.886167875E0,-3.213394372E-1,4.911476961E-1,2.857299816E0,2.916958576E0
3.896176875E0,-7.071578756E-2,5.818979448E-1,2.348364013E0,2.420417211E0
3.906185875E0,-1.797597083E-1,6.978534937E-1,1.795876393E0,1.935067201E0
3.916194875E0,-2.790031839E-1,7.810242891E-1,1.318571688E0,1.557714034E0
3.926203875E0,-4.064004913E-1,9.210431769E-1,1.008340645E0,1.424862361E0
3.936212875E0,-7.392044181E-1,1.002780527E0,1.030723202E0,1.616905154E0
3.946221875E0,-1.114216032E0,9.600192547E-1,1.056184902E0,1.810701766E0
3.956230875E0,-1.414200415E0,6.766973904E-1,1.068768695E0,1.897405780E0
3.966239875E0,-1.543681304E0,1.753044954E-1,1.539985864E0,2.187519165E0
3.976248875E0,-1.398318500E0,-2.888854900E-1,2.535913455E0,2.910258838E0
3.986257875E0,-1.068023760E0,-6.837719366E-1,3.608023249E0,3.824401989E0
3.996266875E0,-6.610097493E-1,-1.017403829E0,4.472934617E0,4.634564546E0
4.006275875E0,-4.199244433E-1,-1.224473324E0,4.757151983E0,4.930128441E0
4.016284875E0,-3.483733079E-1,-1.316149771E0,4.397637098E0,4.603566685E0
4.026293875E0,-4.748816923E-1,-1.246725780E0,3.400989715E0,3.653295612E0
4.036302875E0,-9.016417500E-1,-1.064163136E0,2.041266493E0,2.472280307E0
4.046311875E0,-1.458086253E0,-8.649920601E-1,6.842452687E-1,1.828228206E0
4.056320875E0,-1.940167842E0,-6.933587390E-1,-3.278954816E-1,2.086267730E0
4.066329875E0,-2.389674153E0,-5.612774464E-1,-8.828243136E-1,2.608630617E0
4.076338875E0,-2.781642693E0,-4.782034224E-1,-1.133187470E0,3.041435257E0
4.086347875E0,-2.912130327E0,-3.692525455E-1,-1.191726285E0,3.168132260E0
4.096356875E0,-2.723195387E0,-2.636234719E-1,-1.187648436E0,2.982582649E0
4.106365875E0,-2.326281418E0,-3.283726144E-1,-1.044375281E0,2.571017996E0
4.116374875E0,-1.803508472E0,-5.035589960E-1,-8.544308192E-1,2.058219253E0
4.126383875E0,-1.272159998E0,-6.719763485E-1,-8.437263215E-1,1.667878107E0
4.136392875E0,-8.870295580E-1,-7.265753093E-1,-1.006547889E0,1.525736468E0
4.146401875E0,-6.941021394E-1,-7.245644519E-1,-1.398649306E0,1.721334165E0
4.156410875E0,-6.285287587E-1,-7.488719121E-1,-1.943979349E0,2.175985582E0
4.166419875E0,-5.678297267E-1,-6.778723884E-1,-2.558624040E0,2.707119974E0
4.176428875E0,-4.504658394E-1,-5.717875242E-1,-3.182841793E0,3.265017967E0
4.186437875E0,-2.573332565E-1,-4.351205528E-1,-3.682479354E0,3.717015536E0
4.196446875E0,-7.750312585E-2,-3.281828722E-1,-3.998503819E0,4.012697786E0
4.206455875E0,6.085065767E-2,-3.042168894E-1,-4.116195406E0,4.127870557E0
4.216464875E0,1.668011820E-1,-2.460885492E-1,-3.970513782E0,3.981628046E0
4.226473875E0,3.151662393E-1,-2.808996552E-1,-3.693097313E0,3.717149733E0
4.236482917E0,3.829673360E-1,-3.365250948E-1,-3.465072275E0,3.502376192E0
4.246491917E0,3.744695044E-1,-2.426103330E-1,-3.234689054E0,3.265317820E0
4.256500917E0,4.076692640E-1,-4.728847951E-2,-3.164250571E0,3.190754159E0
4.266508917E0,4.934938914E-1,9.738186836E-2,-3.360959677E0,3.398392178E0
4.276518917E0,6.014424093E-1,2.207186499E-1,-3.638473209E0,3.694446777E0
4.286527917E0,7.327099887E-1,3.109704235E-1,-3.681653143E0,3.766714270E0
4.296536917E0,7.738152570E-1,4.050989011E-1,-3.301516297E0,3.415099564E0
4.306545917E0,5.974914091E-1,6.079434898E-1,-2.576465650E0,2.713810331E0
4.316554917E0,1.938397122E-1,8.561794290E-1,-1.678571892E0,1.894259920E0
4.326563917E0,-3.633667383E-1,1.032409831E0,-1.010337469E0,1.489525846E0
4.336572917E0,-6.925667337E-1,1.287770895E0,-3.306167758E-1,1.499103069E0
4.346580917E0,-6.850668025E-1,1.571653507E0,2.227818400E-1,1.728884906E0
4.356590917E0,-6.059999485E-1,1.729859867E0,6.265221405E-1,1.937054746E0
4.366598917E0,-4.696427333E-1,1.792597275E0,1.016553059E0,2.113610515E0
4.376607917E0,-4.046713965E-1,1.755220118E0,1.614665918E0,2.419029274E0
4.386616917E0,-3.850438285E-1,1.619675520E0,2.474152240E0,2.982119522E0
4.396625917E0,-2.529179509E-1,1.471024680E0,3.331549351E0,3.650630381E0
4.406634917E0,-1.358285904E-1,1.315254562E0,3.926266732E0,4.142935483E0
4.416643917E0,-4.613449495E-2,1.135767554E0,4.181374319E0,4.333126760E0
4.426652917E0,-9.115821079E-2,1.110472791E0,4.270251412E0,4.413219546E0
4.436661917E0,-2.242724231E-1,1.224385908E0,4.301080272E0,4.477578640E0
4.446670917E0,-2.843162930E-1,1.443484294E0,4.216797336E0,4.466079089E0
4.456679917E0,-3.184738630E-1,1.755145274E0,3.879456262E0,4.269911173E0
4.466688917E0,-3.567749162E-1,2.051722484E0,3.331328326E0,3.928689592E0
4.476697917E0,-4.354952131E-1,2.189696600E0,2.635947036E0,3.454365941E0
4.486706917E0,-5.083386928E-1,2.156638489E0,2.054589373E0,3.021727204E0
4.496715917E0,-7.074833462E-1,1.860716168E0,1.883268294E0,2.740346111E0
4.506724917E0,-9.172266993E-1,1.328605510E0,2.202817460E0,2.731099079E0
4.516733917E0,-9.667124163E-1,6.013949007E-1,2.922096906E0,3.136057884E0
4.526742917E0,-8.759207985E-1,2.923578590E-2,3.887826551E0,3.985384206E0
4.536751917E0,-6.629951714E-1,-3.871263143E-1,4.670183421E0,4.732868323E0
4.546760917E0,-4.414774264E-1,-7.323383251E-1,4.891161979E0,4.965348653E0
4.556769917E0,-1.800482135E-1,-9.454251891E-1,4.230293879E0,4.338390537E0
4.566778917E0,1.736096799E-1,-8.881704229E-1,2.743166260E0,2.888589301E0
4.576787917E0,4.066622273E-1,-7.474843678E-1,7.599333823E-1,1.140879394E0
4.586796917E0,5.724230800E-1,-5.934014645E-1,-1.060148730E0,1.343022267E0
4.596805917E0,7.071306130E-1,-4.688513857E-1,-2.336377221E0,2.485661651E0
4.606814917E0,7.868412454E-1,-3.997241405E-1,-2.973963463E0,3.102153641E0
4.616823917E0,8.244628888E-1,-4.611163965E-1,-2.944134477E0,3.091972704E0
4.626832917E0,7.684921711E-1,-7.396274641E-1,-2.310016803E0,2.544367629E0
4.636841917E0,5.985964964E-1,-1.125935168E0,-1.333742874E0,1.845241941E0
4.646850917E0,4.325437214E-1,-1.391846948E0,-5.706479019E-1,1.565238329E0
4.656859917E0,3.895090547E-1,-1.588877358E0,3.115454972E-2,1.636221002E0
4.666868917E0,3.208525834E-1,-1.756865232E0,4.808995736E-1,1.849536759E0
4.676877917E0,2.646969293E-1,-1.868059978E0,6.745997018E-1,2.003695911E0
4.686886917E0,1.101740230E-1,-1.889020200E0,7.055548614E-1,2.019490850E0
4.696895917E0,8.861020435E-2,-1.864532353E0,6.365401751E-1,1.972185604E0
4.706904917E0,2.047721234E-1,-1.912143891E0,5.250659323E-1,1.993469367E0
4.716913917E0,3.691022355E-1,-2.049299982E0,2.799950910E-1,2.101015023E0
4.726922917E0,5.327754861E-1,-2.086314027E0,-1.196281850E-1,2.156586849E0
4.736931917E0,6.583124287E-1,-2.088864875E0,-5.820412016E-1,2.266164972E0
4.746940917E0,8.229173966E-1,-2.111367592E0,-1.088707116E0,2.514030495E0
4.756949917E0,1.067818084E0,-2.088620169E0,-1.513186321E0,2.791469597E0
4.766958917E0,1.095271346E0,-2.045188513E0,-1.953095743E0,3.032655331E0
4.776967917E0,7.836138748E-1,-1.923080231E0,-2.483399611E0,3.237215147E0
4.786976917E0,3.335771479E-1,-1.696370816E0,-2.933146974E0,3.404746515E0
4.796985917E0,-2.470190970E-2,-1.415876665E0,-3.253020076E0,3.547880568E0
4.806994917E0,-3.290108380E-1,-1.113912416E0,-3.572462237E0,3.756532369E0
4.817003917E0,-4.999497291E-1,-7.762307417E-1,-3.895271226E0,4.003201447E0
4.827012917E0,-5.908139985E-1,-3.955194077E-1,-4.171836925E0,4.231987726E0
4.837021917E0,-5.573204894E-1,-1.901368350E-2,-4.357920470E0,4.393454048E0
4.847030917E0,-4.410682674E-1,2.177392012E-1,-4.376231026E0,4.403788093E0
4.857039917E0,-2.654273379E-1,3.268897605E-1,-4.161568630E0,4.182817477E0
4.867048917E0,-6.855637427E-2,4.381912181E-1,-3.832620065E0,3.858197517E0
4.877057917E0,7.501016546E-2,7.081387460E-1,-3.427374691E0,3.500569137E0
4.887066917E0,8.792867482E-2,9.496536031E-1,-3.090186814E0,3.234011126E0
4.897075917E0,9.958111580E-2,1.088318276E0,-2.665430451E0,2.880776381E0
4.907084917E0,2.094817632E-1,1.192653068E0,-2.013379952E0,2.349468617E0
4.917093917E0,3.085026062E-1,1.303082414E0,-1.333299070E0,1.889678291E0
4.927102917E0,3.432999712E-1,1.361931716E0,-7.930701381E-1,1.612970276E0
4.937111917E0,2.222741555E-1,1.352438469E0,-3.245397645E-1,1.408482045E0
4.947120917E0,1.677189756E-2,1.364021803E0,2.486417359E-1,1.386599974E0
4.957129917E0,-1.379276677E-1,1.317245539E0,9.186940581E-1,1.611880462E0
4.967138917E0,-1.895363990E-1,1.277939971E0,1.551440560E0,2.018916151E0
4.977147917E0,-1.173431662E-1,1.280613318E0,2.081531004E0,2.446734806E0
4.987156917E0,-3.356711090E-2,1.399478149E0,2.594886133E0,2.948406330E0
4.997165917E0,-3.269689903E-2,1.572082985E0,2.900783220E0,3.299554104E0
5.007174917E0,-5.682207227E-2,1.711581763E0,2.945986290E0,3.407576279E0
5.017183917E0,-2.664006800E-1,1.772808250E0,2.629507497E0,3.182472010E0
5.027192917E0,-5.701755930E-1,1.836791992E0,2.142458991E0,2.879068523E0
5.037201917E0,-9.218104778E-1,1.878363942E0,1.767688721E0,2.739107349E0
5.047210917E0,-1.335229821E0,1.685873602E0,1.733547413E0,2.762280781E0
5.057219917E0,-1.746082090E0,1.202475806E0,2.350828030E0,3.165618921E0
5.067228917E0,-1.777021169E0,4.653798938E-1,3.584870614E0,4.028111220E0
5.077237917E0,-1.530523607E0,-1.743081298E-1,5.181082719E0,5.405229318E0
5.087246917E0,-1.068201369E0,-7.693979779E-1,6.781883719E0,6.908471191E0
5.097255917E0,-5.880470961E-1,-1.238186506E0,7.763373365E0,7.883455538E0
5.107264917E0,-1.162588001E-1,-1.425909903E0,7.597794836E0,7.731314346E0
5.117273917E0,-2.307230897E-2,-1.298537665E0,6.177921306E0,6.312958424E0
5.127282917E0,-7.312122975E-1,-1.002377362E0,3.879655652E0,4.073224739E0
5.137291917E0,-1.450107435E0,-7.379180306E-1,1.575120029E0,2.264583339E0
5.147300917E0,-2.217608869E0,-3.573420596E-1,-3.159051812E-1,2.268320640E0
5.157309917E0,-2.961660336E0,-7.763055861E-2,-1.701290663E0,3.416408695E0
5.167318917E0,-3.567510815E0,1.844796538E-4,-2.354562061E0,4.274470254E0
5.177327917E0,-3.739309028E0,-1.535592851E-1,-2.049053230E0,4.266688599E0
5.187336917E0,-3.235160632E0,-4.545552358E-1,-1.076372414E0,3.439689282E0
5.197345917E0,-2.437602025E0,-7.849211660E-1,-2.451608884E-1,2.572568509E0
5.207354917E0,-1.887052904E0,-1.046996588E0,1.931861579E-1,2.166677505E0
5.217363917E0,-1.485328723E0,-1.255089929E0,3.236451405E-1,1.971344294E0
5.227372917E0,-1.165968861E0,-1.291878856E0,1.805269361E-1,1.749578332E0
5.237382042E0,-7.978211470E-1,-1.279542693E0,-2.267094147E-1,1.524842695E0
5.247391042E0,-5.337903069E-1,-1.207103292E0,-7.637603849E-1,1.524913235E0
5.257400042E0,-3.308603123E-1,-1.074077382E0,-1.429219719E0,1.818180347E0
5.267409042E0,-2.467176182E-1,-9.148667631E-1,-2.122568518E0,2.324467227E0
5.277418042E0,-1.906999949E-1,-7.357452053E-1,-2.833328571E0,2.933502733E0
5.287427042E0,-1.916542240E-1,-6.038969243E-1,-3.451464050E0,3.509134783E0
5.297436042E0,-2.373869787E-1,-5.233980140E-1,-3.900765270E0,3.942875569E0
5.307445042E0,-1.534174536E-1,-4.474646097E-1,-4.115161618E0,4.142259846E0
5.317454042E0,-1.037849715E-2,-3.341177961E-1,-4.139706475E0,4.153180963E0
5.327463042E0,3.132681417E-2,-2.353761578E-1,-3.991980665E0,3.999036501E0
5.337472042E0,-1.598801435E-2,-1.062655431E-1,-3.888463313E0,3.889947933E0
5.347481042E0,-2.340880527E-1,-3.535226583E-3,-3.689569103E0,3.696989300E0
5.357490042E0,-4.768538851E-1,6.370892286E-2,-3.340656974E0,3.375120364E0
5.367499042E0,-5.118808264E-1,1.836835554E-1,-2.900944603E0,2.951481191E0
5.377508042E0,-4.991824282E-1,3.048133054E-1,-2.389910819E0,2.460440605E0
5.387517042E0,-4.307913109E-1,4.050185019E-1,-1.829994897E0,1.923149100E0
5.397526042E0,-9.082545854E-2,3.550864962E-1,-1.308007523E0,1.358388518E0
5.407535042E0,1.531134715E-1,2.925163186E-1,-8.798124129E-1,9.397230515E-1
5.417544042E0,1.744170708E-1,3.475403720E-1,-7.904523396E-1,8.809202722E-1
5.427553042E0,2.405721763E-2,4.973919377E-1,-9.427097422E-1,1.066151559E0
5.437562042E0,-2.923661548E-1,7.420005566E-1,-1.052004143E0,1.320134657E0
5.447571042E0,-5.916104258E-1,9.935907510E-1,-9.231636697E-1,1.479681262E0
5.457580042E0,-8.995116093E-1,1.188488389E0,-7.398674923E-1,1.664040171E0
5.467589042E0,-1.125888317E0,1.339810237E0,-4.622487098E-1,1.810080066E0
5.477598042E0,-1.186338952E0,1.449558382E0,-1.461429691E-1,1.878823403E0
5.487607042E0,-1.112044669E0,1.390897068E0,1.535069525E-1,1.787401014E0
5.497616042E0,-8.679140599E-1,1.229058710E0,4.421126533E-1,1.568223111E0
5.507625042E0,-6.050749555E-1,1.113434406E0,7.562794572E-1,1.475740660E0
5.517634042E0,-4.287698919E-1,1.000244298E0,1.125075628E0,1.565288294E0
5.527643042E0,-3.635477096E-1,8.776392952E-1,1.487349229E0,1.764830133E0
5.537652042E0,-2.657357054E-1,8.561250499E-1,1.851866992E0,2.057419967E0
5.547661042E0,-8.237065880E-2,8.890568608E-1,2.149394959E0,2.327467661E0
5.557670042E0,1.420116189E-1,1.009387296E0,2.159165071E0,2.387681683E0
5.567679042E0,3.477242669E-1,1.174524069E0,1.948363591E0,2.301421221E0
5.577688042E0,3.710378467E-1,1.299928718E0,1.670450109E0,2.148927017E0
5.587697042E0,8.459170539E-2,1.269120031E0,1.501437510E0,1.967774379E0
5.597706042E0,-3.400814445E-1,1.059347661E0,1.542991333E0,1.902286811E0
5.607714042E0,-9.731124131E-1,6.228053579E-1,1.971189952E0,2.284824744E0
5.617724042E0,-1.436622733E0,1.828883341E-1,2.711835709E0,3.074310643E0
5.627732042E0,-1.359352801E0,-1.395087183E-1,3.478635476E0,3.737406520E0
5.637741042E0,-1.154060056E0,-4.537307784E-1,4.049558197E0,4.235167981E0
5.647750042E0,-8.204199046E-1,-7.923494688E-1,4.204614662E0,4.356568714E0
5.657759042E0,-2.990958614E-1,-9.697615930E-1,4.068884414E0,4.193532671E0
5.667768042E0,3.207581874E-1,-9.972376594E-1,3.374903532E0,3.533743428E0
5.677777042E0,6.990038603E-1,-9.444530895E-1,2.375617300E0,2.650312358E0
5.687786042E0,7.572881750E-1,-8.580353352E-1,1.390086644E0,1.800569603E0
5.697795042E0,7.162546813E-1,-8.126264432E-1,5.692533410E-1,1.223695988E0
5.707804042E0,5.448515213E-1,-8.089090759E-1,-1.915606320E-2,9.754814340E-1
5.717813042E0,2.271491436E-1,-8.029446235E-1,-3.307366437E-1,8.976098982E-1
5.727822042E0,-5.183683670E-2,-8.872377920E-1,-4.048875242E-1,9.766329221E-1
5.737831042E0,-1.817329243E-1,-1.075580117E0,-2.143016231E-1,1.111676495E0
5.747840042E0,-2.174628289E-1,-1.223666700E0,9.556689262E-3,1.242876344E0
5.757849042E0,-1.819910606E-1,-1.274553849E0,9.445884526E-2,1.290941801E0
5.767858042E0,-1.263696227E-1,-1.245985815E0,-5.657298088E-2,1.253654830E0
5.777867042E0,-1.947298777E-1,-1.157033000E0,-3.401097304E-1,1.221605385E0
5.787876042E0,-3.894233565E-1,-1.067825831E0,-7.468268484E-1,1.360019448E0
5.797885042E0,-4.632412747E-1,-1.008357309E0,-1.106210171E0,1.566868815E0
5.807894042E0,-4.267343299E-1,-9.914524242E-1,-1.287956836E0,1.680450210E0
5.817903042E0,-2.186871993E-1,-1.045596764E0,-1.243537878E0,1.639354488E0
5.827912042E0,7.001196552E-2,-1.253887742E0,-9.856774217E-1,1.596463631E0
5.837921042E0,2.493292954E-1,-1.386460493E0,-8.417651653E-1,1.641038205E0
5.847930042E0,2.918684105E-1,-1.278141992E0,-8.634232521E-1,1.569819682E0
5.857939042E0,2.152513937E-1,-1.087895522E0,-1.036294429E0,1.517812891E0
5.867948042E0,1.303122906E-1,-8.691786665E-1,-1.422888354E0,1.672442560E0
5.877957042E0,8.560005773E-2,-7.005756649E-1,-1.933267250E0,2.058070915E0
5.887966042E0,8.873880655E-4,-5.699716714E-1,-2.406205840E0,2.472790941E0
5.897975042E0,-1.383213315E-1,-3.756432599E-1,-2.773544299E0,2.802282753E0
5.907984042E0,-2.250456626E-1,-1.944409704E-1,-3.039666871E0,3.054181973E0
5.917993042E0,-2.112065457E-1,-1.147133079E-1,-3.025219570E0,3.034752181E0
5.928002042E0,-1.553560614E-1,-3.193427593E-2,-2.637542741E0,2.642307138E0
5.938011042E0,-1.335908609E-1,1.064280957E-2,-2.020850939E0,2.025289684E0
5.948020042E0,2.564848255E-2,5.198174715E-2,-1.543124650E0,1.544212949E0
5.958029042E0,2.835921519E-1,2.291076502E-1,-1.359006938E0,1.407058877E0
5.968038042E0,5.500682975E-1,4.263128918E-1,-1.558781154E0,1.707078352E0
5.978047042E0,7.154973207E-1,5.867382699E-1,-1.919799943E0,2.131156971E0
5.988056042E0,8.231096969E-1,7.364664593E-1,-2.122814686E0,2.392955204E0
5.998065042E0,8.133501823E-1,8.370499706E-1,-1.905385972E0,2.234432114E0
6.008074042E0,6.508331090E-1,8.054872853E-1,-1.284505225E0,1.649953689E0
6.018083042E0,3.665195935E-1,7.628751165E-1,-5.711495930E-1,1.021042072E0
6.028092042E0,9.702997562E-2,7.093157905E-1,1.028618789E-1,7.232733045E-1
6.038101042E0,-2.238451561E-1,6.605982515E-1,7.458182037E-1,1.021147147E0
6.048110042E0,-5.260095267E-1,6.481764266E-1,1.201078906E0,1.462671953E0
6.058119042E0,-5.967759658E-1,6.742816132E-1,1.382861239E0,1.650182552E0
6.068128042E0,-5.141170941E-1,7.005730337E-1,1.418126966E0,1.663190625E0
6.078137042E0,-2.884960654E-1,6.991556686E-1,1.446640329E0,1.632426681E0
6.088146042E0,-5.323363602E-2,7.205234411E-1,1.625860997E0,1.779160428E0
6.098155042E0,4.522499710E-2,8.487748075E-1,1.954569826E0,2.131386211E0
6.108164042E0,3.742152236E-2,1.076559817E0,2.180182888E0,2.431785113E0
6.118173042E0,-6.792593479E-2,1.306555660E0,2.178263832E0,2.540971260E0
6.128182042E0,-3.431872661E-1,1.452893049E0,1.960443939E0,2.464146130E0
6.138191042E0,-6.126442127E-1,1.488756361E0,1.544723278E0,2.231120445E0
6.148200042E0,-9.654704677E-1,1.508024691E0,1.194542888E0,2.152487957E0
6.158209042E0,-1.376850302E0,1.473838652E0,1.134743414E0,2.314208232E0
6.168218042E0,-1.709591517E0,1.107570526E0,1.440516540E0,2.494895494E0
6.178227042E0,-1.665401916E0,4.668539768E-1,2.284874361E0,2.865687879E0
6.188236042E0,-1.190624888E0,-8.999654263E-2,3.276731704E0,3.487500203E0
6.198245042E0,-5.258194191E-1,-5.258567682E-1,4.234337229E0,4.299142143E0
6.208254042E0,1.589689828E-2,-8.071040404E-1,4.881931565E0,4.948224474E0
6.218263042E0,2.641103256E-1,-9.900689730E-1,5.014937595E0,5.118553498E0
6.228272042E0,2.627195654E-1,-1.046849530E0,4.470218586E0,4.598670429E0
6.238280750E0,-2.053155125E-1,-9.135490930E-1,3.176214559E0,3.311354003E0
6.248289750E0,-8.779358221E-1,-7.574804753E-1,1.629010307E0,1.999555590E0
6.258298750E0,-1.464286641E0,-6.551723278E-1,1.031513160E-1,1.607490697E0
6.268307750E0,-2.033587344E0,-6.006569821E-1,-1.102120044E0,2.389756240E0
6.278316750E0,-2.529409597E0,-5.969323057E-1,-1.706432120E0,3.109043529E0
6.288325750E0,-2.751157064E0,-7.192619044E-1,-1.619367664E0,3.272392781E0
6.298334750E0,-2.452348996E0,-9.852245548E-1,-9.724317241E-1,2.816079984E0
6.308343750E0,-1.902640412E0,-1.226733272E0,-3.346577865E-1,2.288429787E0
6.318352750E0,-1.395792503E0,-1.438949194E0,1.085061961E-1,2.007631711E0
6.328361750E0,-1.004084018E0,-1.599262890E0,3.397103655E-1,1.918653079E0
6.338370750E0,-6.273225512E-1,-1.624695354E0,3.335608488E-1,1.773254471E0
6.348379750E0,-3.493800522E-1,-1.567810425E0,6.739734650E-2,1.607681048E0
6.358388750E0,-1.451170751E-1,-1.500830862E0,-4.141892749E-1,1.563683151E0
6.368397750E0,8.118418565E-2,-1.437316066E0,-1.085851920E0,1.803203466E0
6.378406750E0,2.733727355E-1,-1.296888750E0,-1.898068766E0,2.315020113E0
6.388415750E0,3.655525737E-1,-1.081063051E0,-2.644276394E0,2.880021467E0
6.398424750E0,3.212141241E-1,-7.698186851E-1,-3.129709899E0,3.238963318E0
6.408433750E0,1.870269385E-1,-5.002135116E-1,-3.365824560E0,3.407927171E0
6.418442750E0,-7.672487972E-2,-3.399150181E-1,-3.464842479E0,3.482321400E0
6.428451750E0,-3.601179522E-1,-2.584264666E-1,-3.426011120E0,3.454565294E0
6.438460750E0,-3.980870663E-1,-1.815411356E-1,-3.347381272E0,3.375854244E0
6.448469750E0,-3.183147091E-1,-6.479416609E-2,-3.269250192E0,3.285349199E0
6.458478750E0,-1.643941940E-1,-4.167602956E-2,-3.150922428E0,3.155483242E0
6.468487750E0,-9.624296780E-2,-6.979090422E-2,-2.798468640E0,2.800992719E0
6.478496750E0,-1.653251438E-1,-1.341672868E-1,-2.231382862E0,2.241517955E0
6.488505750E0,-3.015820610E-1,-1.721043143E-1,-1.571471951E0,1.609377435E0
6.498514750E0,-4.397780062E-1,-1.534376630E-1,-9.724720699E-1,1.078262370E0
6.508523750E0,-4.562136158E-1,-7.892542452E-2,-5.405113524E-1,7.116969917E-1
6.518532750E0,-4.256392926E-1,3.846883178E-2,-4.317461246E-1,6.074976334E-1
6.528541750E0,-3.400465073E-1,1.777810836E-1,-6.668498021E-1,7.693675321E-1
6.538550750E0,-1.458234371E-1,3.327951559E-1,-1.057812182E0,1.118473828E0
6.548559750E0,7.529276870E-3,4.856969216E-1,-1.306974905E0,1.394324780E0
6.558568750E0,5.410110701E-2,6.484921762E-1,-1.091266442E0,1.270563450E0
6.568576750E0,-7.657148167E-3,7.498247159E-1,-5.249735463E-1,9.153649331E-1
6.578585750E0,-1.836758810E-1,8.523933569E-1,1.180207855E-1,8.799091827E-1
6.588594750E0,-4.387822619E-1,9.770662272E-1,5.488980138E-1,1.203527031E0
6.598603750E0,-5.975055156E-1,1.057015499E0,6.710995585E-1,1.387324484E0
6.608612750E0,-5.879353411E-1,1.118503942E0,6.903094161E-1,1.439877121E0
6.618621750E0,-3.755171793E-1,1.160805039E0,5.936467552E-1,1.356796949E0
6.628630750E0,-1.787981702E-1,1.146246057E0,3.351986539E-1,1.207562398E0
6.638639750E0,-1.012135853E-1,1.082868378E0,2.001858598E-1,1.105858261E0
6.648648750E0,-9.041341256E-2,1.045999930E0,2.927718419E-1,1.089956783E0
6.658657750E0,-1.598051347E-1,1.010592992E0,5.007660735E-1,1.139123583E0
6.668666750E0,-3.495133688E-1,9.866808039E-1,7.068336475E-1,1.263056772E0
6.678675750E0,-4.491858473E-1,1.115884974E0,1.007364160E0,1.568996415E0
6.688684750E0,-3.052613118E-1,1.343838969E0,1.341988617E0,1.923543888E0
6.698693750E0,-9.413918529E-2,1.498331762E0,1.531043133E0,2.144283873E0
6.708702750E0,1.407125869E-1,1.601551198E0,1.473309479E0,2.180689591E0
6.718711750E0,3.619095025E-1,1.664839706E0,1.246059782E0,2.110766381E0
6.728720750E0,3.658637552E-1,1.678246494E0,1.023522940E0,1.999491633E0
6.738729750E0,1.327152038E-1,1.537181247E0,9.629060251E-1,1.818715900E0
6.748738750E0,-3.486415854E-1,1.130233164E0,1.164633796E0,1.659924648E0
6.758747750E0,-8.683858571E-1,5.438740861E-1,1.839042878E0,2.105224864E0
6.768756750E0,-1.033337053E0,1.067701578E-2,2.658559388E0,2.852338950E0
6.778765750E0,-8.796864785E-1,-4.140650216E-1,3.457745714E0,3.591838466E0
6.788774750E0,-7.695377994E-1,-8.729840344E-1,4.007979231E0,4.173510162E0
6.798783750E0,-4.668036177E-1,-1.322423541E0,4.159967662E0,4.389993233E0
6.808792750E0,1.120767253E-1,-1.463111935E0,3.796518770E0,4.070234944E0
6.818801750E0,5.374365941E-1,-1.374565794E0,3.046740248E0,3.385394416E0
6.828810750E0,3.389720815E-1,-1.122454613E0,2.134379894E0,2.435237968E0
6.838819750E0,-1.401362707E-1,-8.108918667E-1,1.273644606E0,1.516362218E0
6.848828750E0,-3.861309721E-1,-6.384045598E-1,4.233963007E-1,8.578589260E-1
6.858837750E0,-4.878062681E-1,-4.948828974E-1,-4.129677916E-1,8.083355951E-1
6.868846750E0,-5.012899840E-1,-4.396416199E-1,-1.089549699E0,1.277378154E0
6.878855750E0,-4.188354725E-1,-4.811001331E-1,-1.530742586E0,1.658328482E0
6.888864750E0,-3.297518264E-1,-6.074698654E-1,-1.652429575E0,1.791167051E0
6.898873750E0,-2.831756839E-1,-7.560075617E-1,-1.516916260E0,1.718362837E0
6.908882750E0,-4.073126204E-1,-9.299601808E-1,-1.222959187E0,1.589452321E0
6.918891750E0,-6.319647288E-1,-1.044472637E0,-8.953478801E-1,1.513918866E0
6.928900750E0,-7.779457301E-1,-1.118024763E0,-7.370754468E-1,1.548695949E0
6.938909750E0,-7.708978618E-1,-1.173786735E0,-8.405746722E-1,1.636650418E0
6.948918750E0,-5.804023001E-1,-1.186552083E0,-1.120199634E0,1.731941078E0
6.958927750E0,-3.702509942E-1,-1.076462461E0,-1.450038146E0,1.843493383E0
6.968936750E0,-1.796951148E-1,-9.874973676E-1,-1.789367858E0,2.051652679E0
6.978945750E0,-7.041704966E-2,-9.819141537E-1,-2.147502800E0,2.362389096E0
6.988954750E0,2.311874409E-2,-9.571064642E-1,-2.382950878E0,2.568081414E0
6.998963750E0,1.258534049E-1,-9.035269654E-1,-2.473659319E0,2.636511044E0
7.008972750E0,1.813436276E-1,-8.677417132E-1,-2.531281291E0,2.682022775E0
7.018981750E0,2.096793626E-1,-7.980987436E-1,-2.571393775E0,2.700554199E0
7.028990750E0,2.630254296E-1,-7.466207340E-1,-2.520535278E0,2.641916536E0
7.038999750E0,3.037776539E-1,-6.937987420E-1,-2.391567920E0,2.508632032E0
7.049008750E0,3.512278089E-1,-5.431697890E-1,-2.285384822E0,2.375158559E0
7.059017750E0,2.927866244E-1,-3.786940446E-1,-2.197966610E0,2.249486698E0
7.069026750E0,1.650482051E-1,-2.494363725E-1,-2.166367671E0,2.186917534E0
7.079035750E0,8.273760812E-2,-1.152772719E-1,-2.141554427E0,2.146250154E0
7.089043750E0,8.858460451E-2,4.067937165E-2,-2.077618048E0,2.079903554E0
7.099052750E0,1.220083216E-1,1.686895403E-1,-1.985779340E0,1.996662660E0
7.109061750E0,1.724035090E-1,2.718741855E-1,-1.881578448E0,1.908920114E0
7.119070750E0,2.667106190E-1,4.297791213E-1,-1.659673691E0,1.735039310E0
7.129079750E0,3.112300764E-1,6.165593621E-1,-1.270820986E0,1.446373253E0
7.139088750E0,3.422900840E-1,8.632118753E-1,-8.366769183E-1,1.249930202E0
7.149097750E0,3.035926078E-1,1.103659031E0,-3.848380065E-1,1.207614185E0
7.159106750E0,2.141830160E-1,1.160688094E0,-1.198638278E-1,1.186355155E0
7.169115750E0,7.057362713E-2,1.140378083E0,1.324201387E-1,1.150207765E0
7.179124750E0,4.569964483E-3,1.160917598E0,2.850365603E-1,1.195406372E0
7.189133750E0,-6.602558970E-2,1.144241046E0,3.705386406E-1,1.204552130E0
7.199142750E0,-1.914708041E-1,1.051978123E0,4.575282526E-1,1.163035314E0
7.209151750E0,-2.256925291E-1,1.012366160E0,7.051052105E-1,1.254191261E0
7.219160750E0,-8.797145085E-2,9.314643770E-1,1.091978633E0,1.437978510E0
7.229169750E0,1.281489487E-1,8.920596984E-1,1.438619118E0,1.697591714E0
7.239178667E0,3.581937066E-1,9.438248062E-1,1.580360888E0,1.875272922E0
7.249187667E0,5.520493707E-1,1.105038681E0,1.556144645E0,1.986820362E0
7.259196667E0,7.021482005E-1,1.457364122E0,1.518575699E0,2.218782196E0
7.269205667E0,8.691826864E-1,1.854111738E0,1.406468788E0,2.484222882E0
7.279214667E0,8.117354006E-1,2.044000066E0,1.204874918E0,2.507702973E0
7.289223667E0,4.598025637E-1,2.040716562E0,9.838121599E-1,2.311672306E0
7.299232667E0,-6.979967505E-2,1.964101957E0,9.336991829E-1,2.175859062E0
7.309241667E0,-7.915052770E-1,1.638454438E0,1.206089385E0,2.183040346E0
7.319250667E0,-1.598793066E0,9.467396432E-1,1.796916028E0,2.584833154E0
7.329259667E0,-1.937562615E0,1.935720742E-3,2.553590173E0,3.205460248E0
7.339268667E0,-1.893982586E0,-8.327364796E-1,3.377357023E0,3.960702026E0
7.349277667E0,-1.416292110E0,-1.473246037E0,4.170468092E0,4.644258965E0
7.359286667E0,-6.267145139E-1,-1.942812830E0,4.576329178E0,5.010996060E0
7.369295667E0,1.956395034E-1,-2.208801793E0,4.360204977E0,4.891673294E0
7.379304667E0,9.118275996E-1,-2.324978659E0,3.450341969E0,4.259320960E0
7.389313667E0,1.022955833E0,-2.272684378E0,2.248013513E0,3.356351840E0
7.399322667E0,7.973820211E-1,-2.103279138E0,1.209366750E0,2.553853785E0
7.409331667E0,3.949784672E-1,-1.852780327E0,4.627387065E-1,1.950110263E0
7.419340667E0,-1.810831890E-1,-1.551865360E0,-2.284156322E-2,1.562561664E0
7.429349667E0,-7.755146771E-1,-1.398844019E0,-2.807125443E-1,1.623880271E0
7.439358667E0,-1.231936710E0,-1.332464380E0,-2.242570925E-1,1.828502290E0
7.449367667E0,-1.363428018E0,-1.210853989E0,1.171208990E-1,1.827244003E0
7.459376667E0,-1.364240635E0,-1.111217142E0,4.957713819E-1,1.828044121E0
7.469385667E0,-1.219300950E0,-1.021756789E0,6.258397704E-1,1.709490322E0
7.479393667E0,-1.053652692E0,-9.004998618E-1,3.583302391E-1,1.431602095E0
7.489403667E0,-9.170085981E-1,-6.757325998E-1,-1.214139247E-1,1.145539461E0
7.499411667E0,-8.944487976E-1,-4.472617114E-1,-6.369331080E-1,1.185649811E0
7.509420667E0,-8.075535451E-1,-3.627048334E-1,-1.132982817E0,1.437827385E0
7.519429667E0,-4.949745160E-1,-3.059842104E-1,-1.610029660E0,1.711964257E0
7.529438667E0,-1.450206692E-1,-2.112148780E-1,-2.012233897E0,2.028479228E0
7.539447667E0,1.961311081E-1,-1.124934125E-1,-2.354962596E0,2.365791835E0
7.549456667E0,4.539768000E-1,-5.419491827E-3,-2.686571059E0,2.724662981E0
7.559465667E0,5.518014853E-1,5.500738889E-2,-2.981511633E0,3.032642793E0
7.569474667E0,5.176141676E-1,1.046718845E-1,-3.194794672E0,3.238146634E0
7.579483667E0,3.900007325E-1,1.963758141E-1,-3.219817246E0,3.249290250E0
7.589492667E0,1.156382461E-1,2.604925802E-1,-3.000381183E0,3.013887163E0
7.599501667E0,-1.918327651E-1,2.533847049E-1,-2.638377138E0,2.657449443E0
7.609510667E0,-4.044004146E-1,1.670844796E-1,-2.123344443E0,2.167959535E0
7.619519667E0,-5.381620874E-1,1.748349640E-1,-1.664227502E0,1.757793753E0
7.629528667E0,-4.926537926E-1,2.270084998E-1,-1.407049416E0,1.507988289E0
7.639537667E0,-3.428872309E-1,3.226414660E-1,-1.331620334E0,1.412402876E0
7.649546667E0,-1.838897063E-1,3.042826706E-1,-1.458210799E0,1.500927081E0
7.659555667E0,-4.068821557E-2,2.136367947E-1,-1.441922210E0,1.458230391E0
7.669564667E0,1.419538411E-1,8.984217614E-2,-1.148678498E0,1.160898274E0
7.679573667E0,3.129831813E-1,-1.123951793E-2,-6.415097237E-1,7.138764067E-1
7.689582667E0,1.335937480E-1,3.623051763E-2,2.257493019E-2,1.402482349E-1
7.699591667E0,-3.201791669E-1,1.824357596E-1,5.445278049E-1,6.575013578E-1
7.709600667E0,-7.799924017E-1,3.797023970E-1,7.334753162E-1,1.136022930E0
7.719609667E0,-1.200652059E0,5.868721712E-1,6.272179592E-1,1.476274595E0
7.729618667E0,-1.534407767E0,8.259773907E-1,3.166390067E-1,1.771131306E0
7.739627667E0,-1.776065296E0,9.631884456E-1,-8.437415242E-2,2.022191612E0
7.749636667E0,-1.761556453E0,1.080823022E0,-4.880705988E-1,2.123551849E0
7.759645667E0,-1.542438186E0,1.157162223E0,-7.211780369E-1,2.058698067E0
7.769654667E0,-1.312461348E0,1.180939634E0,-6.455372858E-1,1.879864781E0
7.779663667E0,-9.600182314E-1,1.180278021E0,-4.374044752E-1,1.583039446E0
7.789672667E0,-6.886501955E-1,1.189810152E0,-8.657329023E-2,1.377454981E0
7.799681667E0,-3.874646123E-1,1.221845585E0,3.471082628E-1,1.327975755E0
7.809690667E0,-3.347454216E-2,1.259253732E0,8.098048693E-1,1.497539459E0
7.819699667E0,3.408314960E-1,1.338403105E0,1.287163954E0,1.887930090E0
7.829708667E0,5.909703384E-1,1.437674208E0,1.605240791E0,2.234491232E0
7.839716667E0,6.629121409E-1,1.480741583E0,1.685856938E0,2.339692663E0
7.849726667E0,6.207743275E-1,1.446337735E0,1.622166726E0,2.260238593E0
7.859734667E0,4.172287672E-1,1.322797763E0,1.562241536E0,2.089131969E0
7.869743667E0,3.417116482E-2,9.491057190E-1,1.623750152E0,1.881099118E0
7.879752667E0,-5.402739555E-1,3.964365435E-1,2.208762324E0,2.308178694E0
7.889761667E0,-7.563069391E-1,-1.399618775E-1,3.173661665E0,3.265534853E0
7.899770667E0,-5.347612736E-1,-4.780689365E-1,4.140077773E0,4.201757192E0
7.909779667E0,-7.568212017E-2,-7.798317495E-1,4.779552081E0,4.843344241E0
7.919788667E0,5.310120024E-1,-9.586743951E-1,4.791011454E0,4.914755447E0
7.929797667E0,1.086873283E0,-8.697964248E-1,3.966204384E0,4.203405354E0
7.939806667E0,1.326259315E0,-5.399339399E-1,2.664380876E0,3.024800470E0
7.949815667E0,1.223296206E0,-2.541884047E-1,1.426795464E0,1.896525942E0
7.959824667E0,1.287763586E0,-2.061237073E-1,3.117928344E-1,1.340908948E0
7.969833667E0,1.296398169E0,-3.008857307E-1,-5.769313198E-1,1.450527554E0
7.979842667E0,1.321083067E0,-4.107394177E-1,-1.092193810E0,1.762627204E0
7.989851667E0,1.342694815E0,-5.959768707E-1,-1.190100174E0,1.890596789E0
7.999860667E0,1.251661122E0,-8.549123374E-1,-8.148937011E-1,1.720924871E0
8.009869667E0,1.182626994E0,-1.163141001E0,-1.477263951E-1,1.665330803E0
8.019878667E0,1.074307762E0,-1.434224643E0,3.709315735E-1,1.829952931E0
8.029887667E0,7.970342579E-1,-1.633588385E0,6.888633996E-1,1.943812594E0
8.039896667E0,4.904165383E-1,-1.821567889E0,8.165315062E-1,2.055563586E0
8.049905667E0,1.513477220E-1,-1.948455977E0,7.955891186E-1,2.110058974E0
8.059914667E0,-2.832757809E-1,-1.982988171E0,6.094313139E-1,2.093775007E0
8.069923667E0,-7.508671282E-1,-1.880859826E0,3.822009122E-1,2.060949457E0
8.079932667E0,-1.047373367E0,-1.685234794E0,2.668990821E-1,2.002059540E0
8.089941667E0,-1.116369562E0,-1.503131449E0,1.517019171E-1,1.878483064E0
8.099950667E0,-1.002737550E0,-1.404600018E0,-1.880324221E-1,1.736012672E0
8.109959667E0,-7.514560890E-1,-1.298040652E0,-8.124273455E-1,1.705764925E0
8.119968667E0,-4.757388941E-1,-1.123795964E0,-1.551455178E0,1.973894129E0
8.129977667E0,-3.871493743E-1,-8.733807680E-1,-2.216696995E0,2.413798702E0
8.139986667E0,-3.655914942E-1,-6.831918928E-1,-2.865932645E0,2.968834490E0
8.149995667E0,-3.525212496E-1,-5.114924982E-1,-3.419926507E0,3.475887387E0
8.160004667E0,-3.882368833E-1,-3.711140066E-1,-3.806902841E0,3.844601764E0
8.170013667E0,-2.496087923E-1,-2.543968579E-1,-3.986165024E0,4.002066205E0
8.180022667E0,-9.796523776E-2,-1.849866074E-1,-3.962025379E0,3.967551176E0
8.190030667E0,6.678766463E-2,-1.068581584E-1,-3.833683673E0,3.835754132E0
8.200039667E0,1.418793987E-1,6.035700649E-2,-3.635160177E0,3.638428540E0
8.210048667E0,2.086666248E-1,2.399460492E-1,-3.337646243E0,3.352759805E0
8.220057667E0,3.553455278E-1,4.389405388E-1,-3.087889443E0,3.139108226E0
8.230066667E0,4.801131596E-1,6.903012300E-1,-2.834852355E0,2.956926159E0
8.240075625E0,4.758609547E-1,8.487163353E-1,-2.409119507E0,2.598195502E0
8.250084625E0,3.089612471E-1,9.264240772E-1,-1.723776131E0,1.981192261E0
8.260093625E0,7.243435733E-2,1.062996908E0,-8.499688089E-1,1.362958598E0
8.270102625E0,-2.076998608E-1,1.099672399E0,-7.132784486E-2,1.121385874E0
8.280111625E0,-1.488272979E-1,1.072239017E0,1.919670135E-1,1.099407754E0
8.290120625E0,-5.020108726E-3,1.047590665E0,7.543142080E-2,1.050314858E0
8.300129625E0,1.408532307E-1,9.551789296E-1,-1.277458745E-1,9.739227015E-1
8.310138625E0,4.634636150E-1,8.533900148E-1,-2.197939128E-1,9.956818788E-1
8.320147625E0,7.465528332E-1,7.491908777E-1,3.759525776E-2,1.058320135E0
8.330156625E0,8.276372690E-1,6.769818574E-1,4.181425774E-1,1.148098907E0
8.340165625E0,7.996948142E-1,6.485737449E-1,6.331727636E-1,1.208746229E0
8.350174625E0,6.225709576E-1,6.884976563E-1,6.375792253E-1,1.126113177E0
8.360183625E0,3.466796984E-1,8.189987388E-1,6.737606263E-1,1.115750478E0
8.370192625E0,1.370230577E-1,9.502707767E-1,6.781413603E-1,1.175442713E0
8.380201625E0,1.146256910E-1,1.063105082E0,6.584274727E-1,1.255730147E0
8.390210625E0,9.148400120E-2,1.137498037E0,5.554691148E-1,1.269179674E0
8.400219625E0,-4.177951614E-2,1.140835628E0,4.483364296E-1,1.226481558E0
8.410228625E0,-3.407664092E-1,1.104960621E0,5.512936181E-1,1.281009123E0
8.420237625E0,-7.606455000E-1,9.091224584E-1,8.293895334E-1,1.446710828E0
8.430246625E0,-1.112559297E0,5.409367374E-1,1.368062521E0,1.844450001E0
8.440255625E0,-1.394434341E0,-8.940685093E-3,1.970145639E0,2.413711024E0
8.450264625E0,-1.441876602E0,-5.883439153E-1,2.685324433E0,3.104210690E0
8.460273625E0,-1.300021250E0,-1.018166014E0,3.521010248E0,3.888988358E0
8.470282625E0,-1.016148140E0,-1.400811022E0,4.311631572E0,4.645965494E0
8.480291625E0,-6.484082687E-1,-1.685949616E0,4.889555165E0,5.212543439E0
8.490300625E0,-3.156267075E-1,-1.776355172E0,5.012057256E0,5.326891763E0
8.500309625E0,-1.296438442E-1,-1.668178174E0,4.475341916E0,4.777898200E0
8.510318625E0,-6.200720038E-2,-1.309988852E0,3.394368913E0,3.638908628E0
8.520326625E0,-2.635685446E-1,-1.034656916E0,2.052359830E0,2.313474483E0
8.530335625E0,-5.297307313E-1,-8.918325341E-1,6.532474244E-1,1.225851587E0
8.540344625E0,-6.953137556E-1,-7.074364954E-1,-5.061940438E-1,1.113624723E0
8.550353625E0,-8.677070685E-1,-5.536310425E-1,-1.203817157E0,1.583855623E0
8.560362625E0,-1.128008299E0,-4.433689275E-1,-1.450324659E0,1.890084745E0
8.570371625E0,-1.252804984E0,-3.914576393E-1,-1.046059279E0,1.678391917E0
8.580380625E0,-1.278930197E0,-4.428716218E-1,-2.236419654E-1,1.371792058E0
8.590389625E0,-1.282847539E0,-4.764606598E-1,4.567558354E-1,1.442684464E0
8.600398625E0,-1.284510633E0,-4.889339402E-1,8.610311562E-1,1.621850368E0
8.610407625E0,-1.235733307E0,-5.111875659E-1,9.103898424E-1,1.617763641E0
8.620416625E0,-1.138543300E0,-5.301606113E-1,6.404934776E-1,1.409816660E0
8.630425625E0,-8.815827305E-1,-5.417497927E-1,1.688974088E-1,1.048430867E0
8.640434625E0,-4.870802267E-1,-5.002754921E-1,-4.368010426E-1,8.236005500E-1
8.650443625E0,-1.846846901E-1,-5.097821876E-1,-1.065198385E0,1.195254748E0
8.660452625E0,-6.386787577E-2,-5.019732311E-1,-1.586605130E0,1.665344429E0
8.670461625E0,4.046629546E-3,-4.044320261E-1,-2.007171378E0,2.047515221E0
8.680470625E0,3.836255863E-2,-2.737607896E-1,-2.357812529E0,2.373962210E0
8.690479625E0,1.162976475E-2,-1.639445248E-1,-2.779558160E0,2.784413156E0
8.700488625E0,-6.823005853E-2,-1.077896199E-1,-3.197621216E0,3.200164899E0
8.710497625E0,-1.400027897E-1,-8.591226250E-2,-3.281072093E0,3.285181239E0
8.720506625E0,-1.916192138E-1,-1.938889933E-1,-3.025641155E0,3.037896519E0
8.730515625E0,-2.427444352E-1,-2.694718570E-1,-2.728217853E0,2.752219576E0
8.740524625E0,-4.346271209E-1,-2.564033300E-1,-2.478320720E0,2.529173183E0
8.750533625E0,-6.402671903E-1,-2.055407399E-1,-2.413501410E0,2.505429729E0
8.760542625E0,-6.582881628E-1,-9.518477708E-2,-2.575404380E0,2.659908113E0
8.770551625E0,-4.983636353E-1,5.107367456E-2,-2.796155482E0,2.840679551E0
8.780560625E0,-1.050895584E-1,1.485286331E-1,-3.030251684E0,3.035709116E0
8.790569625E0,2.140101211E-1,2.651066181E-1,-3.195060135E0,3.213174617E0
8.800578625E0,4.284281221E-1,4.207676849E-1,-3.106881199E0,3.164380964E0
8.810587625E0,4.500910328E-1,5.942656830E-1,-2.605555547E0,2.710102092E0
8.820595625E0,3.995890698E-1,7.431796476E-1,-1.819444181E0,2.005583342E0
8.830604625E0,2.779546685E-1,8.895260999E-1,-1.175678017E0,1.500244740E0
8.840613625E0,1.638404444E-2,1.037453054E0,-7.855412632E-1,1.301403993E0
8.850622625E0,-1.970448452E-1,1.121012397E0,-6.764263719E-1,1.324027229E0
8.860631625E0,-4.978384822E-1,1.307392689E0,-5.949454218E-1,1.520223290E0
8.870640625E0,-7.981483718E-1,1.370100276E0,-1.788370907E-1,1.595681138E0
8.880649625E0,-6.641352323E-1,1.129278899E0,3.906887305E-1,1.367107941E0
8.890658625E0,-2.654866506E-1,8.675364760E-1,9.197547430E-1,1.291917755E0
8.900667625E0,1.381206623E-1,7.060954365E-1,1.255669681E0,1.447188457E0
8.910676625E0,3.148014461E-1,7.704557392E-1,1.510459764E0,1.724584209E0
8.920685625E0,3.025154959E-1,7.903076211E-1,1.723882551E0,1.920383506E0
8.930694625E0,1.693373753E-1,8.961200050E-1,1.898227810E0,2.105938040E0
8.940703625E0,1.295383019E-2,1.040493314E0,2.054059031E0,2.302596934E0
8.950712625E0,6.776137222E-3,1.280444918E0,2.203512109E0,2.548538938E0
8.960721625E0,1.606045222E-1,1.511812225E0,2.360864190E0,2.808033074E0
8.970730625E0,3.575084494E-1,1.664758430E0,2.638342055E0,3.140076706E0
8.980739625E0,5.378512713E-1,1.755751630E0,2.900234751E0,3.432682535E0
8.990748625E0,5.283410309E-1,1.734881456E0,3.202307174E0,3.680180586E0
9.000757625E0,2.519365506E-1,1.618551100E0,3.535982044E0,3.896966603E0
9.010766625E0,-1.569372216E-1,1.396545770E0,3.854372876E0,4.102579634E0
9.020775625E0,-5.701333835E-1,1.105831564E0,4.183602108E0,4.364681216E0
9.030784625E0,-8.503629112E-1,7.151238298E-1,4.387724898E0,4.526217952E0
9.040793625E0,-1.023290075E0,3.001065892E-1,4.432225133E0,4.558706633E0
9.050802625E0,-1.015564222E0,-9.342973530E-3,4.135381874E0,4.258267397E0
9.060811625E0,-7.879524357E-1,-2.451638120E-1,3.499332281E0,3.595316502E0
9.070820625E0,-3.936365677E-1,-4.121909890E-1,2.591685367E0,2.653617192E0
9.080829625E0,7.949300643E-2,-3.674071643E-1,1.456016339E0,1.503758871E0
9.090838625E0,4.933479302E-1,-2.889205733E-1,3.564287245E-1,6.737274773E-1
9.100847625E0,7.574666613E-1,-3.027033377E-1,-4.038309324E-1,9.102002392E-1
9.110856625E0,9.507690326E-1,-3.635746068E-1,-9.959346074E-1,1.424090584E0
9.120864625E0,1.112027127E0,-4.789802250E-1,-1.364208621E0,1.824031675E0
9.130873625E0,1.073479650E0,-6.032584083E-1,-1.374469315E0,1.845384829E0
9.140882625E0,7.983159676E-1,-7.722487879E-1,-1.123917294E0,1.580147670E0
9.150891625E0,4.691307364E-1,-1.003800867E0,-7.374496686E-1,1.330989046E0
9.160900625E0,2.864267724E-1,-1.217732361E0,-4.242143261E-1,1.320935348E0
9.170909625E0,1.938765679E-1,-1.390553252E0,-2.861305743E-1,1.432863278E0
9.180918625E0,4.520089561E-2,-1.445444281E0,-2.722264802E-1,1.471550049E0
9.190927625E0,-1.281009832E-1,-1.506422846E0,-2.553022993E-1,1.533264138E0
9.200936625E0,-2.053821342E-1,-1.480821105E0,-3.341794842E-1,1.531890627E0
9.210945625E0,-5.618004799E-2,-1.453397079E0,-4.583176267E-1,1.524983381E0
9.220954625E0,2.935722892E-1,-1.542481748E0,-4.475488096E-1,1.632707742E0
9.230963625E0,7.399742040E-1,-1.747288955E0,-4.537638152E-1,1.951020788E0
9.240973167E0,1.010666521E0,-1.832266832E0,-6.564019972E-1,2.193059995E0
9.250982167E0,9.500838120E-1,-1.740014141E0,-1.063337801E0,2.249665696E0
9.260991167E0,5.987060586E-1,-1.528829669E0,-1.550068803E0,2.257981930E0
9.271000167E0,3.027365937E-1,-1.251272575E0,-2.070379779E0,2.437991988E0
9.281009167E0,2.017323022E-1,-1.009810342E0,-2.643049064E0,2.836568561E0
9.291018167E0,2.827292855E-1,-7.135863045E-1,-3.193677853E0,3.284618622E0
9.301027167E0,3.778671753E-1,-4.078128862E-1,-3.707317157E0,3.748772526E0
9.311036167E0,4.275691661E-1,-1.436926934E-1,-4.049063523E0,4.074110749E0
9.321045167E0,4.137328632E-1,6.635098726E-2,-4.108483513E0,4.129795892E0
9.331054167E0,3.397586416E-1,2.222482815E-1,-3.936045030E0,3.956928192E0
9.341063167E0,2.376066878E-1,2.968841887E-1,-3.568015430E0,3.588221184E0
9.351072167E0,2.520564733E-1,3.396024844E-1,-3.054613523E0,3.083751950E0
9.361081167E0,3.695331023E-1,4.547423467E-1,-2.470025859E0,2.538576976E0
9.371090167E0,4.322586331E-1,6.241908556E-1,-2.049131582E0,2.185269318E0
9.381099167E0,4.740202878E-1,7.189575568E-1,-1.830603007E0,2.023042899E0
9.391108167E0,5.197330889E-1,7.384814098E-1,-1.589612938E0,1.828208568E0
9.401117167E0,6.097282793E-1,7.877748996E-1,-1.127401065E0,1.504457055E0
9.411126167E0,5.804909220E-1,8.315436476E-1,-5.976719785E-1,1.177134802E0
9.421134167E0,4.866178581E-1,8.633118626E-1,-7.397546411E-2,9.937689275E-1
9.431143167E0,3.775835488E-1,8.804863045E-1,5.381841606E-1,1.098848333E0
9.441152167E0,1.990781048E-1,9.213337836E-1,1.062260744E0,1.420171089E0
9.451161167E0,-3.110715073E-2,8.873778328E-1,1.512633174E0,1.753985802E0
9.461170167E0,-2.024334930E-1,8.665249076E-1,1.846595727E0,2.049819629E0
9.471179167E0,-3.349343232E-1,8.782015049E-1,2.012271904E0,2.220958600E0
9.481188167E0,-3.338073090E-1,8.758538479E-1,2.210845687E0,2.401330034E0
9.491197167E0,-1.139487845E-1,9.815402243E-1,2.295841398E0,2.499458594E0
9.501206167E0,1.985130445E-1,1.192792817E0,2.222262960E0,2.529943635E0
9.511215167E0,5.479661869E-1,1.449116625E0,1.947621580E0,2.488661438E0
9.521224167E0,6.540018614E-1,1.749584572E0,1.569955183E0,2.439984403E0
9.531233167E0,4.710962049E-1,2.011672565E0,1.236254001E0,2.407713043E0
9.541242167E0,7.980513811E-2,2.051866910E0,1.029491193E0,2.297036959E0
9.551251167E0,-4.719788421E-1,1.952955995E0,1.043667183E0,2.264076486E0
9.561260167E0,-9.199173687E-1,1.613952265E0,1.133465213E0,2.176196973E0
9.571269167E0,-1.197991942E0,1.029348521E0,1.557714622E0,2.218381823E0
9.581278167E0,-1.366633169E0,3.608588675E-1,2.450011425E0,2.828508675E0
9.591287167E0,-1.267456644E0,-1.385488978E-1,3.594431396E0,3.813866700E0
9.601296167E0,-8.572856491E-1,-5.771774876E-1,4.644013622E0,4.757618633E0
9.611305167E0,-3.418032302E-1,-1.069211329E0,5.257064363E0,5.375571414E0
9.621314167E0,1.436584141E-1,-1.482289926E0,5.386634569E0,5.588707645E0
9.631323167E0,4.193431935E-1,-1.677212122E0,4.884862774E0,5.181773204E0
9.641332167E0,3.268238331E-1,-1.615923946E0,3.794701456E0,4.137364277E0
9.651341167E0,-8.016715385E-3,-1.507147316E0,2.463590414E0,2.888050385E0
9.661350167E0,-3.726334787E-1,-1.337015560E0,1.260512930E0,1.874929109E0
9.671359167E0,-7.399940845E-1,-1.120637591E0,1.610720801E-1,1.352539859E0
9.681368167E0,-1.177593784E0,-1.001947299E0,-7.992021132E-1,1.740502665E0
9.691377167E0,-1.544572712E0,-9.094931719E-1,-1.471999703E0,2.319410662E0
9.701385167E0,-1.756398332E0,-8.483655024E-1,-1.687808154E0,2.579409911E0
9.711394167E0,-1.737666338E0,-8.539235732E-1,-1.360116740E0,2.366133411E0
9.721403167E0,-1.482680227E0,-9.904809093E-1,-6.737693971E-1,1.906137007E0
9.731412167E0,-1.206700419E0,-1.159728566E0,-2.184233254E-1,1.687840336E0
9.741421167E0,-9.906436081E-1,-1.237927474E0,-2.491521978E-1,1.604966046E0
9.751430167E0,-8.248766524E-1,-1.243832870E0,-6.886224943E-1,1.643697855E0
9.761439167E0,-6.806169252E-1,-1.233359630E0,-1.343707699E0,1.946783438E0
9.771448167E0,-4.561369076E-1,-1.203304941E0,-1.968594373E0,2.351885938E0
9.781457167E0,-1.532484325E-1,-1.150086508E0,-2.418456341E0,2.682371177E0
9.791466167E0,1.694156183E-1,-1.156300929E0,-2.880926660E0,3.108934208E0
9.801475167E0,4.421119589E-1,-1.151788048E0,-3.195454822E0,3.425348188E0
9.811484167E0,6.773227501E-1,-1.152639402E0,-3.351532211E0,3.608339211E0
9.821493167E0,7.641796303E-1,-1.100585734E0,-3.497936550E0,3.745773562E0
9.831502167E0,6.572534980E-1,-9.970034784E-1,-3.664975714E0,3.854613480E0
9.841511167E0,5.642890914E-1,-8.289676568E-1,-3.727359073E0,3.859898343E0
9.851520167E0,4.489969822E-1,-6.709250191E-1,-3.595114936E0,3.684642462E0
9.861529167E0,3.284749772E-1,-4.773599616E-1,-3.400212620E0,3.449233858E0
9.871538167E0,1.808377521E-1,-2.600174940E-1,-3.201118435E0,3.216748456E0
9.881547167E0,1.533025558E-1,-4.719346225E-2,-3.096883630E0,3.101034846E0
9.891556167E0,1.663476208E-1,2.105099961E-1,-3.028871741E0,3.040731822E0
9.901565167E0,6.970093019E-2,5.005973813E-1,-2.855177277E0,2.899567768E0
9.911574167E0,2.860348262E-2,7.136792752E-1,-2.437709468E0,2.540193638E0
9.921583167E0,3.892856911E-3,7.586063567E-1,-1.890243437E0,2.036791352E0
9.931592167E0,-3.871901952E-2,6.947641173E-1,-1.165999120E0,1.357847668E0
9.941601167E0,-8.695599049E-2,5.863351044E-1,-4.810013151E-1,7.633560533E-1
9.951610167E0,-2.600894513E-1,5.442266732E-1,1.474083066E-1,6.209334935E-1
9.961619167E0,-5.193821098E-1,6.481591773E-1,6.694138062E-1,1.066762832E0
9.971627167E0,-6.740597845E-1,8.880634189E-1,8.453921932E-1,1.399178755E0
9.981636167E0,-6.188014770E-1,1.095601860E0,5.793924129E-1,1.385263250E0
9.991645167E0,-4.064371095E-1,1.195255079E0,1.779605931E-1,1.274949333E0
1.000165417E1,-3.709513810E-2,1.276433436E0,-6.336627603E-2,1.278543566E0
1.001166317E1,3.292435572E-1,1.257011617E0,9.857236147E-2,1.303148509E0
1.002167217E1,5.505693308E-1,1.241407152E0,4.899083787E-1,1.443685743E0
1.003168117E1,4.962433252E-1,1.250797781E0,9.008974725E-1,1.619372960E0
1.004169017E1,1.410375641E-1,1.291114625E0,1.312267805E0,1.846324825E0
1.005169917E1,-1.182768570E-1,1.453831527E0,1.632161372E0,2.188964656E0
1.006170817E1,-1.721411883E-1,1.683867423E0,1.930968125E0,2.567816190E0
1.007171717E1,-1.232791865E-1,1.848734930E0,2.381494921E0,3.017372476E0
1.008172617E1,-1.604370908E-2,1.916253607E0,2.877176841E0,3.456939667E0
1.009173517E1,1.855559435E-1,1.927345482E0,2.990954887E0,3.562990703E0
1.010174417E1,3.164521151E-1,1.931140618E0,2.623458552E0,3.272916254E0
1.011175317E1,1.171866070E-2,1.699907212E0,2.154803048E0,2.744630765E0
1.012176217E1,-5.133694179E-1,1.290939501E0,2.088392127E0,2.508277224E0
1.013177117E1,-9.162256560E-1,6.947287416E-1,2.692821733E0,2.928037971E0
1.014178017E1,-8.597609948E-1,5.492435843E-2,3.487502779E0,3.592336466E0
1.015178917E1,-5.761657731E-1,-3.535048243E-1,4.219472437E0,4.273275126E0
1.016179817E1,-1.719602718E-1,-6.408902112E-1,4.734181781E0,4.780458946E0
1.017180717E1,3.799433023E-1,-9.361520898E-1,4.778094370E0,4.883740724E0
1.018181617E1,1.110300445E0,-1.053577629E0,3.998392137E0,4.281347052E0
1.019182517E1,1.625072792E0,-8.696739256E-1,2.642589473E0,3.221874212E0
1.020183417E1,1.570266840E0,-7.380361444E-1,1.195457978E0,2.107025172E0
1.021184317E1,1.625638072E0,-6.340100849E-1,-8.039395273E-2,1.746748727E0
1.022185217E1,1.554446175E0,-5.080441028E-1,-1.032332355E0,1.933939454E0
1.023186117E1,1.361555155E0,-5.005456334E-1,-1.483245653E0,2.074703843E0
1.024186950E1,1.073111568E0,-6.218396902E-1,-1.412516563E0,1.879748940E0
1.025187750E1,7.546314195E-1,-8.855274814E-1,-8.575339365E-1,1.445334547E0
1.026188650E1,5.069411717E-1,-1.170439204E0,-2.716394198E-1,1.304110906E0
1.027189550E1,3.732501407E-1,-1.332697976E0,2.475436288E-1,1.405943602E0
1.028190450E1,2.681104424E-1,-1.524975769E0,7.798279488E-1,1.733656810E0
1.029191350E1,2.187092543E-1,-1.725282666E0,1.092777362E0,2.053922194E0
1.030192250E1,2.149110126E-1,-1.776006970E0,1.147445905E0,2.125328117E0
1.031193150E1,1.841073324E-1,-1.722674516E0,8.587530810E-1,1.933639018E0
1.032194050E1,1.419227047E-1,-1.656936024E0,1.702989864E-1,1.671699969E0
1.033194950E1,1.375035253E-1,-1.522345984E0,-6.975061691E-1,1.680166471E0
1.034195850E1,1.509581512E-1,-1.397735094E0,-1.454483199E0,2.022862609E0
1.035196750E1,2.516489224E-1,-1.298849614E0,-2.146570169E0,2.521527511E0
1.036197650E1,3.602236406E-1,-1.157856580E0,-2.739154485E0,2.995556747E0
1.037198550E1,4.976995012E-1,-1.018143210E0,-3.224069341E0,3.417446928E0
1.038199450E1,5.443174878E-1,-8.356893235E-1,-3.660301450E0,3.793740223E0
1.039200350E1,4.989507323E-1,-6.321904314E-1,-4.064344636E0,4.143369872E0
1.040201250E1,4.211024380E-1,-4.512293395E-1,-4.421773819E0,4.464640959E0
1.041202150E1,3.350022971E-1,-2.640994352E-1,-4.521554800E0,4.541633281E0
1.042203050E1,3.113264459E-1,-1.444119009E-1,-4.291719464E0,4.305419249E0
1.043203950E1,3.622994021E-1,-8.821577311E-2,-3.835927835E0,3.854008982E0
1.044204850E1,3.925486567E-1,-1.448179901E-2,-3.328735086E0,3.351832550E0
1.045205750E1,3.789463155E-1,7.857926935E-2,-2.768714499E0,2.795631411E0
1.046206650E1,5.258934595E-1,1.294760656E-1,-2.099753267E0,2.168476831E0
1.047207550E1,7.462405188E-1,2.739707047E-1,-1.456756597E0,1.659540491E0
1.048208450E1,8.379023485E-1,3.515828446E-1,-1.044041989E0,1.384093392E0
1.049209350E1,6.438576731E-1,3.821713838E-1,-7.224240786E-1,1.040434630E0
1.050210150E1,4.420391611E-1,4.649743894E-1,-4.074129367E-1,7.599901997E-1
1.051211050E1,4.220160654E-1,5.508413360E-1,-4.282617688E-2,6.952393964E-1
1.052211950E1,5.361724626E-1,5.303886527E-1,2.783210331E-1,8.039002612E-1
1.053212850E1,6.553842162E-1,4.478534496E-1,5.966072005E-1,9.929961404E-1
1.054213750E1,7.611087457E-1,3.792995238E-1,9.000075263E-1,1.238211694E0
1.055214650E1,7.868226805E-1,3.920221880E-1,1.297620530E0,1.567351385E0
1.056215550E1,6.939775937E-1,4.921525401E-1,1.566203610E0,1.782361571E0
1.057216450E1,4.985247261E-1,6.539777416E-1,1.725401073E0,1.911340537E0
1.058217350E1,3.876372148E-1,8.846039137E-1,1.695920581E0,1.951648870E0
1.059218250E1,3.526635927E-1,1.134564489E0,1.635039371E0,2.021128876E0
1.060219150E1,4.900795194E-1,1.392620827E0,1.669632084E0,2.228731029E0
1.061220050E1,6.907463492E-1,1.579571806E0,1.685944061E0,2.411345058E0
1.062220950E1,6.614756262E-1,1.591315647E0,1.676891402E0,2.404537433E0
1.063221850E1,2.191560181E-1,1.456016047E0,1.547620574E0,2.136151102E0
1.064222750E1,-3.538898635E-1,1.292879315E0,1.453896723E0,1.977521337E0
1.065223650E1,-1.049211440E0,9.122811243E-1,1.475542531E0,2.027394203E0
1.066224550E1,-1.510598197E0,2.816723648E-1,2.116502616E0,2.615497956E0
1.067225450E1,-1.441087959E0,-3.213100550E-1,3.217162026E0,3.539788999E0
1.068226350E1,-9.212447597E-1,-7.238695103E-1,4.466492155E0,4.617600150E0
1.069227250E1,-4.069766979E-1,-1.197952107E0,5.724857987E0,5.862995673E0
1.070228150E1,-8.414815754E-2,-1.695661841E0,6.380290516E0,6.602306950E0
1.071229050E1,1.279365303E-1,-1.824315204E0,6.171311613E0,6.436581449E0
1.072229950E1,5.950842932E-2,-1.621004007E0,4.871228821E0,5.134205437E0
1.073230850E1,-5.188565547E-1,-1.309857290E0,2.959885122E0,3.278087579E0
1.074231750E1,-1.175435284E0,-1.108455502E0,1.069066903E0,1.937324379E0
1.075232650E1,-1.694702606E0,-8.994710442E-1,-5.203203321E-1,1.987913059E0
1.076233550E1,-2.141243209E0,-7.488111010E-1,-1.623387625E0,2.789449395E0
1.077234350E1,-2.492563367E0,-7.000833294E-1,-2.107452296E0,3.338314543E0
1.078235250E1,-2.547438902E0,-7.029879338E-1,-1.906260715E0,3.258445474E0
1.079236150E1,-2.209608708E0,-9.010345897E-1,-1.035089318E0,2.601085133E0
1.080237050E1,-1.651632307E0,-1.167514426E0,-1.254976201E-1,2.026506567E0
1.081237950E1,-1.023651506E0,-1.322964116E0,3.270645922E-1,1.704425917E0
1.082238850E1,-6.161134388E-1,-1.335948151E0,3.719934279E-1,1.517475648E0
1.083239750E1,-3.500804390E-1,-1.308898931E0,1.075478375E-2,1.354949590E0
1.084240650E1,-1.104069067E-1,-1.256134242E0,-5.427946901E-1,1.372839756E0
1.085241550E1,1.205016860E-1,-1.178975554E0,-1.201315134E0,1.687501722E0
1.086242450E1,3.546585531E-1,-1.070235761E0,-1.883877574E0,2.195491286E0
1.087243350E1,5.498878743E-1,-8.960931078E-1,-2.591026386E0,2.796207658E0
1.088244250E1,6.761588618E-1,-7.986425346E-1,-3.278280047E0,3.441241167E0
1.089245150E1,7.314258671E-1,-6.677157748E-1,-3.717739819E0,3.847391001E0
1.090246050E1,6.840574269E-1,-4.789954278E-1,-3.837155165E0,3.926974783E0
1.091246950E1,6.031053574E-1,-3.529107472E-1,-3.717417052E0,3.782521858E0
1.092247850E1,5.406090009E-1,-2.660293087E-1,-3.437078730E0,3.489489917E0
1.093248750E1,4.367748032E-1,-1.798542139E-1,-3.024277584E0,3.060943428E0
1.094249650E1,3.922195681E-1,-1.463347578E-1,-2.679130477E0,2.711639756E0
1.095250550E1,3.709052610E-1,-1.779293105E-1,-2.409108982E0,2.443979468E0
1.096251450E1,3.326054138E-1,-8.402565837E-2,-2.175170070E0,2.202056199E0
1.097252350E1,2.506390534E-1,5.669284880E-2,-2.041202173E0,2.057313862E0
1.098253250E1,9.965268938E-2,1.481462252E-1,-1.920977572E0,1.929257058E0
1.099254150E1,3.639986761E-2,2.652864200E-1,-1.733507652E0,1.754066879E0
1.100255050E1,3.877391025E-2,3.758248159E-1,-1.467881509E0,1.515725514E0
1.101255950E1,5.636770707E-2,4.766922095E-1,-1.161968050E0,1.257212206E0
1.102256750E1,1.426525286E-1,6.232284039E-1,-8.921430212E-1,1.097580319E0
1.103257650E1,1.894526194E-1,7.556231073E-1,-7.527418917E-1,1.083272325E0
1.104258550E1,8.842040738E-2,8.753161964E-1,-7.499393213E-1,1.156030102E0
1.105259450E1,-1.090569673E-1,1.030637248E0,-7.370298386E-1,1.271738787E0
1.106260350E1,-2.130680981E-1,1.178577066E0,-5.556275743E-1,1.320289331E0
1.107261250E1,-2.377272135E-1,1.261135950E0,-1.510563844E-1,1.292205922E0
1.108262150E1,-2.124577767E-1,1.296014007E0,2.662102801E-1,1.340021838E0
1.109263050E1,-2.407851794E-1,1.226525989E0,6.258742690E-1,1.397877714E0
1.110263950E1,-2.554518783E-1,1.201035637E0,1.021425544E0,1.597201429E0
1.111264850E1,-2.458358216E-1,1.179758496E0,1.272009725E0,1.752219764E0
1.112265750E1,-1.149093906E-1,1.027004665E0,1.301008991E0,1.661495454E0
1.113266650E1,6.749621926E-2,9.407231507E-1,1.395582442E0,1.684388951E0
1.114267550E1,1.651616959E-1,8.905163258E-1,1.679839568E0,1.908444049E0
1.115268450E1,1.510373993E-1,7.945208323E-1,2.030640348E0,2.185766655E0
1.116269350E1,2.244917851E-1,8.170489848E-1,2.407662381E0,2.552411359E0
1.117270250E1,3.187057782E-1,9.969625479E-1,2.682283881E0,2.879262842E0
1.118271150E1,3.202829915E-1,1.249497360E0,2.703389406E0,2.995352922E0
1.119272050E1,3.016525382E-1,1.540834880E0,2.322335717E0,2.803285495E0
1.120272950E1,2.906253838E-1,1.717561418E0,1.665734915E0,2.410218485E0
1.121273850E1,1.589459594E-1,1.669205237E0,1.062213382E0,1.984894760E0
1.122274750E1,-1.401584170E-1,1.374956973E0,9.570874608E-1,1.681120896E0
1.123275650E1,-6.361927043E-1,8.207473487E-1,1.703972781E0,1.995467516E0
1.124276538E1,-8.541703257E-1,1.413236940E-1,2.861610383E0,2.989714588E0
1.125277438E1,-6.478488363E-1,-3.883708942E-1,3.863048975E0,3.936202161E0
1.126278338E1,-5.040656938E-1,-7.537879586E-1,4.628685147E0,4.716673054E0
1.127279138E1,-2.898841213E-1,-1.065266798E0,4.825517043E0,4.950196046E0
1.128280038E1,2.004016586E-1,-1.236698974E0,4.211751773E0,4.394136796E0
1.129280938E1,8.822069938E-1,-1.185233244E0,2.810001104E0,3.174771366E0
1.130281838E1,1.208053611E0,-9.685795784E-1,1.276006297E0,2.006422686E0
1.131282738E1,1.241870837E0,-8.253283498E-1,-3.568672657E-2,1.491537328E0
1.132283638E1,1.265464790E0,-7.342231750E-1,-9.845635271E-1,1.763476721E0
1.133284538E1,1.292924484E0,-6.542008129E-1,-1.523023676E0,2.102197313E0
1.134285438E1,1.229390686E0,-6.112167612E-1,-1.615484528E0,2.120089066E0
1.135286338E1,9.160016345E-1,-7.710544941E-1,-1.224929114E0,1.712902613E0
1.136287238E1,5.379948570E-1,-1.023964697E0,-5.988010758E-1,1.302499480E0
1.137288138E1,3.637157074E-1,-1.238152885E0,-1.574772120E-1,1.300042597E0
1.138289038E1,2.451740081E-1,-1.328802854E0,4.828279853E-2,1.352094134E0
1.139289938E1,1.584317699E-2,-1.382474154E0,1.134085017E-1,1.387208449E0
1.140290838E1,-8.053578425E-2,-1.382582035E0,6.465792596E-2,1.386434183E0
1.141291738E1,-8.912285898E-2,-1.340701060E0,3.758297861E-2,1.344185514E0
1.142292638E1,-8.529351745E-2,-1.298890252E0,-1.374528372E-1,1.308924809E0
1.143293538E1,-8.621719480E-4,-1.288185755E0,-5.309119785E-1,1.393302125E0
1.144294438E1,1.106414531E-1,-1.246909382E0,-1.016875826E0,1.612780513E0
1.145295338E1,1.965992143E-1,-1.109008356E0,-1.596716720E0,1.953984408E0
1.146296238E1,2.212629161E-1,-1.010562002E0,-2.094083807E0,2.335675454E0
1.147297138E1,2.961484993E-1,-9.151442134E-1,-2.364140385E0,2.552322986E0
1.148298038E1,3.691053784E-1,-8.694479308E-1,-2.529452866E0,2.700057460E0
1.149298938E1,5.340028898E-1,-7.974152040E-1,-2.695399770E0,2.861155364E0
1.150299838E1,6.369176129E-1,-6.342439735E-1,-2.934455581E0,3.069032261E0
1.151300738E1,6.277439162E-1,-4.098330992E-1,-3.154873391E0,3.242722885E0
1.152301638E1,4.808852479E-1,-2.017222157E-1,-3.226685970E0,3.268553935E0
1.153302538E1,3.229075508E-1,3.361681223E-2,-3.183023642E0,3.199537292E0
1.154303338E1,1.979755757E-1,2.306986776E-1,-2.922860552E0,2.938627233E0
1.155304238E1,2.115077869E-1,4.148748609E-1,-2.616547143E0,2.657663569E0
1.156305138E1,2.879319553E-1,5.454852864E-1,-2.275664411E0,2.357775969E0
1.157306038E1,3.486257249E-1,6.444514579E-1,-2.015372098E0,2.144430524E0
1.158306938E1,3.418884534E-1,7.795107374E-1,-1.876172113E0,2.060229720E0
1.159307838E1,1.431934508E-1,9.030235201E-1,-1.718685545E0,1.946750073E0
1.160308738E1,7.957051858E-2,9.919585007E-1,-1.447940750E0,1.756942102E0
1.161309638E1,1.292133795E-1,9.752866271E-1,-9.664769197E-1,1.379114839E0
1.162310538E1,1.030108001E-1,8.697508165E-1,-4.621083766E-1,9.902635303E-1
1.163311438E1,3.682390038E-2,7.699321210E-1,1.231774449E-1,7.805921814E-1
1.164312338E1,-4.708799310E-3,7.220852324E-1,8.088166898E-1,1.084257208E0
1.165313238E1,5.368719723E-2,6.508538666E-1,1.344806390E0,1.494990735E0
1.166314138E1,1.474825297E-1,5.791196403E-1,1.615772211E0,1.722745046E0
1.167315038E1,1.836251929E-1,5.523981571E-1,1.636746174E0,1.737181617E0
1.168315938E1,2.141125753E-1,5.716699952E-1,1.527535388E0,1.644997003E0
1.169316838E1,2.783976316E-1,6.241657126E-1,1.398687313E0,1.556731922E0
1.170317738E1,3.746096183E-1,7.343041590E-1,1.319268676E0,1.555636463E0
1.171318638E1,5.433278466E-1,9.095048663E-1,1.357679036E0,1.722119803E0
1.172319538E1,6.864556624E-1,1.073780344E0,1.439816628E0,1.922835803E0
1.173320438E1,7.323382520E-1,1.173972676E0,1.490634195E0,2.033844011E0
1.174321338E1,6.664548958E-1,1.157329161E0,1.274690673E0,1.846187756E0
1.175322238E1,5.586638507E-1,1.086180534E0,9.587059700E-1,1.552742924E0
1.176323138E1,2.180937983E-1,9.670838606E-1,7.785386378E-1,1.260531042E0
1.177324038E1,-3.687444956E-1,6.349801379E-1,9.641000265E-1,1.211883303E0
1.178324838E1,-1.034610211E0,1.404702929E-1,1.685478038E0,1.982671534E0
1.179325738E1,-1.313727854E0,-2.914594343E-1,2.851067854E0,3.152684155E0
1.180326638E1,-1.023900086E0,-6.469084579E-1,3.840668172E0,4.027107392E0
1.181327538E1,-5.486655139E-1,-9.251853445E-1,4.533635733E0,4.659490822E0
1.182328438E1,-2.178326835E-1,-1.127477664E0,4.771830248E0,4.908056731E0
1.183329338E1,4.947120856E-2,-1.235491232E0,4.253023176E0,4.429118661E0
1.184330238E1,1.751395674E-1,-1.150753967E0,2.924398370E0,3.147541006E0
1.185331138E1,-2.441841111E-2,-9.781962016E-1,1.269386664E0,1.602749691E0
1.186332038E1,-4.644316216E-1,-8.317079544E-1,-1.712719631E-1,9.678682441E-1
1.187332938E1,-8.552375156E-1,-7.201802096E-1,-1.349798743E0,1.752725703E0
1.188333838E1,-1.341155681E0,-6.785983202E-1,-1.896758405E0,2.420100553E0
1.189334738E1,-1.923087101E0,-8.207488105E-1,-1.516777096E0,2.583119310E0
1.190335638E1,-2.141454294E0,-9.030989492E-1,-5.900220662E-1,2.397819894E0
1.191336538E1,-2.055462363E0,-8.942351550E-1,3.693054628E-1,2.271776521E0
1.192337438E1,-1.922449609E0,-1.048423893E0,1.218896542E0,2.506135259E0
1.193338338E1,-1.512504243E0,-1.212198556E0,1.774522946E0,2.627931908E0
1.194339238E1,-9.670291161E-1,-1.263882972E0,1.791450636E0,2.396213859E0
1.195340138E1,-5.215291708E-1,-1.289151130E0,1.209962581E0,1.843342822E0
1.196341038E1,-2.601555613E-1,-1.171829087E0,2.231157160E-1,1.220919714E0
1.197341938E1,-2.058088713E-1,-9.400989604E-1,-7.657765049E-1,1.229860562E0
1.198342838E1,-2.483785381E-1,-7.104630142E-1,-1.622841495E0,1.788872301E0
1.199343738E1,-2.382655959E-1,-5.242958540E-1,-2.408727159E0,2.476615263E0
1.200344638E1,-1.695854434E-1,-3.025206122E-1,-3.103551795E0,3.122869143E0
1.201345538E1,-1.206576239E-1,-1.166273940E-1,-3.659914364E0,3.663759458E0
1.202346438E1,-6.249127675E-2,-4.046711773E-2,-3.989590323E0,3.990284914E0
1.203347238E1,3.330201276E-2,-6.394251913E-2,-4.025334937E0,4.025980505E0
1.204348138E1,1.992332022E-1,-1.688421527E-1,-3.843158501E0,3.852021392E0
1.205349038E1,2.913199417E-1,-2.284366822E-1,-3.605789028E0,3.624743458E0
1.206349938E1,2.940938608E-1,-2.585820025E-1,-3.277518740E0,3.300830947E0
1.207350838E1,2.066950168E-1,-2.377866724E-1,-2.990627443E0,3.007177719E0
1.208351738E1,1.000018595E-1,-1.511423385E-1,-2.775382664E0,2.781293459E0
1.209352638E1,6.300597791E-2,-7.164300978E-2,-2.740227449E0,2.741887843E0
1.210353538E1,2.266552549E-2,8.944778144E-2,-2.691628901E0,2.693210124E0
1.211354438E1,4.162230827E-3,2.871833655E-1,-2.459454094E0,2.476167613E0
1.212355338E1,2.433008160E-2,4.529943216E-1,-2.060719010E0,2.110061289E0
1.213356238E1,-4.248294532E-3,5.430253628E-1,-1.587597402E0,1.677903485E0
1.214357138E1,-9.325282048E-2,5.378505769E-1,-8.808695894E-1,1.036296562E0
1.215358038E1,-2.972164201E-1,5.239225093E-1,1.088581985E-1,6.121131460E-1
1.216358938E1,-6.312842591E-1,5.430978683E-1,1.158347454E0,1.426619758E0
1.217359838E1,-8.991802914E-1,5.647793439E-1,1.861886780E0,2.143390605E0
1.218360738E1,-9.577025148E-1,5.984403026E-1,2.120194548E0,2.402196875E0
1.219361638E1,-8.233762568E-1,7.915361211E-1,2.095772483E0,2.386784488E0
1.220362538E1,-4.734803705E-1,1.034558098E0,1.614793387E0,1.975361183E0
1.221363438E1,-1.281686648E-1,1.152438258E0,9.072013557E-1,1.472262016E0
1.222364338E1,6.462516328E-2,1.287183250E0,2.048601240E-1,1.304984598E0
1.223365238E1,4.501807876E-4,1.411652344E0,-1.749972242E-1,1.422457934E0
1.224366175E1,-1.863571034E-1,1.404821335E0,-1.459424096E-1,1.424623157E0
1.225367075E1,-3.831519619E-1,1.362886858E0,2.303510606E-1,1.434338742E0
1.226367975E1,-5.908399455E-1,1.304909084E0,7.930900186E-1,1.637336659E0
1.227368775E1,-7.063212852E-1,1.327304505E0,1.412813601E0,2.063169716E0
1.228369675E1,-7.119090307E-1,1.591166543E0,1.958050089E0,2.621561669E0
1.229370575E1,-5.425434426E-1,1.835288381E0,2.092036697E0,2.835357891E0
1.230371475E1,-1.702073861E-1,1.999765587E0,1.711595796E0,2.637724991E0
1.231372375E1,6.374652777E-2,1.942754942E0,1.105723683E0,2.236288275E0
1.232373275E1,-1.695637722E-1,1.600494021E0,8.164782965E-1,1.804707675E0
1.233374175E1,-7.401825842E-1,1.043373360E0,1.118546627E0,1.699307148E0
1.234375075E1,-1.283474653E0,3.831949389E-1,2.094615319E0,2.486274096E0
1.235375975E1,-1.261455062E0,-1.881198379E-1,3.376712075E0,3.609548779E0
1.236376875E1,-8.015751325E-1,-5.831743920E-1,4.328335898E0,4.440394882E0
1.237377775E1,-3.653992670E-1,-7.702332526E-1,4.711458916E0,4.787966270E0
1.238378675E1,2.270200481E-1,-8.999905694E-1,4.424969907E0,4.521269712E0
1.239379575E1,9.924722517E-1,-8.541773424E-1,3.311141984E0,3.560657431E0
1.240380475E1,1.394534328E0,-6.218089923E-1,1.777691553E0,2.343407705E0
1.241381375E1,1.356270880E0,-5.283011967E-1,3.868231362E-1,1.506056106E0
1.242382275E1,1.327801664E0,-4.500391388E-1,-6.729724216E-1,1.555147699E0
1.243383175E1,1.095715588E0,-3.516924798E-1,-1.192098752E0,1.656918732E0
1.244384075E1,8.296821865E-1,-3.998443007E-1,-1.154198855E0,1.476625542E0
1.245384975E1,5.189470769E-1,-6.187517756E-1,-4.665510911E-1,9.326466368E-1
1.246385875E1,2.909364009E-1,-9.267860198E-1,5.278228945E-1,1.105519481E0
1.247386775E1,2.650000891E-1,-1.230472859E0,1.232631651E0,1.761723387E0
1.248387675E1,2.008293459E-1,-1.393108192E0,1.632203472E0,2.155265885E0
1.249388575E1,1.315404617E-1,-1.541124902E0,1.647768760E0,2.259980252E0
1.250389375E1,1.075784623E-1,-1.644075366E0,1.308201651E0,2.103793834E0
1.251390275E1,1.246085510E-1,-1.633305379E0,5.857898515E-1,1.739644649E0
1.252391175E1,1.495975772E-1,-1.501773725E0,-2.110669434E-1,1.523894029E0
1.253392075E1,7.332898133E-2,-1.365032786E0,-9.199202192E-1,1.647708972E0
1.254392975E1,3.024402861E-2,-1.261994322E0,-1.547518832E0,1.997087606E0
1.255393875E1,1.111454100E-1,-1.151642744E0,-2.142396426E0,2.434850459E0
1.256394775E1,2.048555924E-1,-1.016691346E0,-2.722809763E0,2.913643786E0
1.257395675E1,2.565537130E-1,-8.930712667E-1,-3.281969640E0,3.410970656E0
1.258396575E1,3.232540349E-1,-7.698704329E-1,-3.625375446E0,3.720287728E0
1.259397475E1,4.283112509E-1,-5.797221959E-1,-3.797526830E0,3.865325132E0
1.260398375E1,3.987337318E-1,-3.718147954E-1,-3.876664801E0,3.914813509E0
1.261399275E1,3.301873343E-1,-1.833593273E-1,-3.874470926E0,3.892835634E0
1.262400175E1,3.200079166E-1,-4.458648115E-2,-3.791393101E0,3.805135302E0
1.263401075E1,2.167980187E-1,4.947592288E-2,-3.589097566E0,3.595979781E0
1.264401975E1,1.907328855E-1,3.042481720E-2,-3.342967209E0,3.348542140E0
1.265402875E1,3.123260274E-1,4.401783943E-2,-2.984882553E0,3.001501120E0
1.266403775E1,3.971768375E-1,9.483306706E-2,-2.559340324E0,2.591710950E0
1.267404675E1,4.628432620E-1,1.951315266E-1,-2.194920210E0,2.251660482E0
1.268405575E1,4.541009802E-1,3.059839180E-1,-1.959790805E0,2.034849837E0
1.269406475E1,5.363789424E-1,4.164699814E-1,-1.730278235E0,1.858766361E0
1.270407375E1,5.551810298E-1,5.522496378E-1,-1.458894923E0,1.655771734E0
1.271408275E1,4.917320887E-1,6.101657242E-1,-1.151383420E0,1.392762161E0
1.272409175E1,4.379846652E-1,6.386355248E-1,-6.651377374E-1,1.020830108E0
1.273410075E1,4.552376790E-1,6.014331999E-1,-3.905940056E-3,7.543066318E-1
1.274410875E1,4.695613839E-1,5.485325629E-1,6.689343345E-1,9.843012799E-1
1.275411775E1,4.588516968E-1,5.308976528E-1,1.172974849E0,1.366845709E0
1.276412675E1,3.495593059E-1,5.319767565E-1,1.565895461E0,1.690331202E0
1.277413575E1,1.462917442E-1,6.044588417E-1,1.808240331E0,1.912198959E0
1.278414475E1,-2.073766194E-2,7.504182082E-1,1.812768999E0,1.962062431E0
1.279415375E1,-4.856532868E-2,9.261384407E-1,1.813938442E0,2.037268680E0
1.280416275E1,5.907226358E-2,1.192208972E0,1.745955790E0,2.114997254E0
1.281417175E1,2.314722642E-1,1.534458491E0,1.595264856E0,2.225536392E0
1.282418075E1,3.217713272E-1,1.817972437E0,1.189776823E0,2.196390096E0
1.283418975E1,1.449042365E-2,1.774765898E0,6.646114880E-1,1.895181362E0
1.284419875E1,-6.201188546E-1,1.437546739E0,2.897985327E-1,1.592190695E0
1.285420775E1,-1.291677420E0,9.692327124E-1,4.980336696E-1,1.689934952E0
1.286421675E1,-1.855330005E0,3.584951305E-1,1.406596257E0,2.355691240E0
1.287422575E1,-1.905685934E0,-2.332132727E-1,2.755919622E0,3.358737898E0
1.288423475E1,-1.397982578E0,-5.548171502E-1,4.483027496E0,4.728605808E0
1.289424375E1,-8.738552696E-1,-8.768876356E-1,6.055580013E0,6.180825531E0
1.290425275E1,-5.230646496E-1,-1.218548925E0,6.949812829E0,7.075193034E0
1.291426175E1,-2.440850373E-1,-1.253833947E0,6.765420883E0,6.884954379E0
1.292427075E1,-3.072082519E-1,-1.059583889E0,5.372003666E0,5.484115089E0
1.293427975E1,-8.566388009E-1,-8.249041343E-1,3.360830453E0,3.565035512E0
1.294428875E1,-1.290573758E0,-7.100890848E-1,1.230582202E0,1.919411287E0
1.295429775E1,-1.550082105E0,-5.570025471E-1,-4.877250284E-1,1.717813166E0
1.296430675E1,-1.915766095E0,-5.342174095E-1,-1.693121518E0,2.611935766E0
1.297431575E1,-2.390727821E0,-5.627108914E-1,-2.137285375E0,3.255796652E0
1.298432375E1,-2.692018033E0,-6.300407025E-1,-1.812350339E0,3.305832138E0
1.299433275E1,-2.634107502E0,-8.179862934E-1,-1.138085098E0,2.983766344E0
1.300434175E1,-2.350550287E0,-1.014986298E0,-5.174405783E-1,2.612092760E0
1.301435075E1,-1.979131348E0,-1.177006504E0,-8.800351918E-2,2.304354535E0
1.302435975E1,-1.571311737E0,-1.303882605E0,1.176459789E-3,2.041845197E0
1.303436875E1,-1.200457128E0,-1.392881613E0,-1.771033913E-1,1.847317546E0
1.304437775E1,-8.520920791E-1,-1.472791708E0,-5.509047782E-1,1.788483269E0
1.305438675E1,-4.775067267E-1,-1.516235351E0,-9.831297898E-1,1.869097776E0
1.306439575E1,-1.721557149E-1,-1.458828557E0,-1.424746599E0,2.046392245E0
1.307440475E1,4.462823393E-2,-1.348370268E0,-1.820867393E0,2.266197724E0
1.308441375E1,1.773661140E-1,-1.205046242E0,-2.185750022E0,2.502218684E0
1.309442275E1,2.117298349E-1,-9.510259447E-1,-2.439250209E0,2.626636909E0
1.310443175E1,1.651951712E-1,-6.574220440E-1,-2.613317142E0,2.699799932E0
1.311444075E1,4.324174946E-2,-4.239713743E-1,-2.891365694E0,2.922604515E0
1.312444975E1,-2.819954965E-2,-2.416206917E-1,-3.220587325E0,3.229761367E0
1.313445875E1,-2.443770692E-2,-4.209176660E-2,-3.470012003E0,3.470353327E0
1.314446775E1,1.694561925E-2,1.252993995E-1,-3.490229920E0,3.492519433E0
1.315447675E1,1.495152594E-1,1.624005675E-1,-3.263031678E0,3.270489946E0
1.316448575E1,1.255932952E-1,1.782155317E-1,-2.784304930E0,2.792828028E0
1.317449475E1,-7.758759985E-2,1.968637642E-1,-2.307541677E0,2.317223288E0
1.318450375E1,-2.827362291E-1,2.480795261E-1,-1.981254764E0,2.016644160E0
1.319451275E1,-4.114660073E-1,3.987996957E-1,-1.897011005E0,1.981665013E0
1.320452175E1,-4.496037770E-1,5.677877364E-1,-1.951337485E0,2.081404442E0
1.321452975E1,-4.000089364E-1,7.237315160E-1,-1.997373784E0,2.161780860E0
1.322453875E1,-3.782776498E-1,8.853468025E-1,-1.962797443E0,2.186208303E0
1.323454775E1,-3.919499383E-1,9.759713361E-1,-1.821110052E0,2.102994680E0
1.324455679E1,-4.312702709E-1,1.033700896E0,-1.323740042E0,1.734018249E0
1.325456579E1,-6.049769415E-1,1.060859166E0,-5.307465023E-1,1.331582187E0
1.326457479E1,-7.985562151E-1,1.098300642E0,3.117665219E-1,1.393253277E0
1.327458379E1,-8.749419746E-1,1.132141695E0,1.016195210E0,1.754970365E0
1.328459279E1,-8.782357842E-1,1.144143983E0,1.434573430E0,2.034297046E0
1.329460179E1,-8.222488406E-1,1.166348492E0,1.582150721E0,2.130648461E0
1.330461079E1,-7.628295082E-1,1.221412598E0,1.480063598E0,2.065029261E0
1.331461979E1,-7.413437681E-1,1.275892276E0,1.191330428E0,1.896512555E0
1.332462879E1,-7.944205526E-1,1.274156823E0,9.058646822E-1,1.753616391E0
1.333463779E1,-8.525409260E-1,1.229006085E0,7.534113979E-1,1.674786769E0
1.334464679E1,-8.905746518E-1,1.180887593E0,9.042561132E-1,1.733579487E0
1.335465579E1,-8.511059462E-1,1.103292118E0,1.465440881E0,2.022165128E0
1.336466479E1,-6.328609608E-1,1.041506052E0,2.080856820E0,2.411475266E0
1.337467379E1,-2.573575590E-1,1.130564409E0,2.488623514E0,2.745479155E0
1.338468279E1,1.343641004E-1,1.324246995E0,2.523779313E0,2.853269324E0
1.339469179E1,4.088282552E-1,1.550101547E0,2.292478665E0,2.797394105E0
1.340470079E1,5.116132798E-1,1.691434889E0,1.946670238E0,2.629111094E0
1.341470979E1,2.278837549E-1,1.684860865E0,1.537067519E0,2.291999934E0
1.342471879E1,-4.347666501E-1,1.403710071E0,1.238780583E0,1.921978496E0
1.343472779E1,-1.178773898E0,9.381860438E-1,1.508780444E0,2.132163076E0
1.344473679E1,-1.655735883E0,3.241611573E-1,2.349370319E0,2.892418135E0
1.345474479E1,-1.284433012E0,-3.084014493E-1,3.446441292E0,3.690912786E0
1.346475379E1,-7.636908761E-1,-8.019704774E-1,4.430685561E0,4.566985323E0
1.347476279E1,-1.474937034E-1,-1.130172353E0,4.988250318E0,5.116804195E0
1.348477179E1,5.618407526E-1,-1.320055127E0,4.592902526E0,4.811752714E0
1.349478079E1,1.237836843E0,-1.286841772E0,3.394736702E0,3.835679741E0
1.350478979E1,1.373747038E0,-1.058871113E0,1.983029979E0,2.634539211E0
1.351479879E1,1.282158006E0,-9.837940335E-1,6.365968931E-1,1.736961559E0
1.352480779E1,1.343613412E0,-8.434032628E-1,-4.012441242E-1,1.636344375E0
1.353481679E1,1.288979807E0,-7.465081751E-1,-1.041858054E0,1.817749048E0
1.354482579E1,1.124778589E0,-8.564188725E-1,-1.158816985E0,1.827959782E0
1.355483479E1,1.042489042E0,-1.067565046E0,-7.429314333E-1,1.666861015E0
1.356484379E1,9.969697838E-1,-1.396848072E0,-1.084658504E-2,1.716173340E0
1.357485279E1,8.551351163E-1,-1.728600377E0,6.368389678E-1,2.030979862E0
1.358486179E1,7.041440745E-1,-1.936134725E0,1.092837589E0,2.332108605E0
1.359487079E1,5.963730926E-1,-2.077268384E0,1.307010573E0,2.525664555E0
1.360487979E1,5.639166603E-1,-2.114730033E0,1.278581995E0,2.534730169E0
1.361488879E1,5.133211053E-1,-2.030706129E0,8.773671073E-1,2.270911486E0
1.362489779E1,3.461785920E-1,-1.825868517E0,2.591287172E-1,1.876375002E0
1.363490679E1,1.501877806E-1,-1.565661573E0,-3.956553555E-1,1.621849466E0
1.364491579E1,-3.663883600E-2,-1.324294358E0,-1.112008855E0,1.729642057E0
1.365492479E1,-1.113478699E-1,-1.108348790E0,-1.870757591E0,2.177284858E0
1.366493379E1,-1.771369762E-1,-9.566799098E-1,-2.546995683E0,2.726499765E0
1.367494279E1,-9.299020741E-2,-7.866127655E-1,-3.077900060E0,3.178187471E0
1.368495079E1,-1.714842170E-3,-6.269755921E-1,-3.603451896E0,3.657590313E0
1.369495979E1,6.023607876E-2,-5.134612557E-1,-4.057872353E0,4.090672180E0
1.370496879E1,1.218453761E-2,-3.592967838E-1,-4.372095875E0,4.386851375E0
1.371497779E1,-7.831384230E-2,-1.710316426E-1,-4.469911022E0,4.473867390E0
1.372498679E1,-1.599092151E-1,-4.867982447E-2,-4.254656303E0,4.257938579E0
1.373499579E1,-2.058947888E-1,2.274040639E-2,-3.775605619E0,3.781283853E0
1.374500479E1,-1.699038608E-1,-6.306280553E-2,-2.915852664E0,2.921479248E0
1.375501379E1,-8.967370324E-2,-8.819326133E-2,-2.050188174E0,2.054042593E0
1.376502279E1,-9.913862776E-2,-9.895652354E-2,-1.464255651E0,1.470940336E0
1.377503179E1,1.898539759E-2,4.408479005E-2,-1.225000450E0,1.225940462E0
1.378504079E1,2.335476969E-1,3.161332226E-1,-1.377499927E0,1.432477152E0
1.379504979E1,5.216618660E-1,5.024103105E-1,-1.772732529E0,1.914974632E0
1.380505879E1,7.534129328E-1,6.399683976E-1,-2.232182761E0,2.441276403E0
1.381506779E1,8.375429640E-1,7.732407680E-1,-2.456949146E0,2.708501174E0
1.382507679E1,7.480853154E-1,8.430594465E-1,-2.287483388E0,2.550090414E0
1.383508579E1,6.432502936E-1,8.495252976E-1,-1.660027447E0,1.972601150E0
1.384509479E1,6.218920228E-1,7.681259161E-1,-8.464984864E-1,1.301278909E0
1.385510379E1,7.198742540E-1,6.368234727E-1,2.740297616E-2,9.615165105E-1
1.386511279E1,6.511114365E-1,5.537816083E-1,9.065055370E-1,1.245942399E0
1.387512179E1,5.410074156E-1,5.030263147E-1,1.699989073E0,1.853560721E0
1.388513079E1,4.460242578E-1,5.107031241E-1,2.234527495E0,2.335137779E0
1.389513979E1,1.660168511E-1,5.748020563E-1,2.445632445E0,2.517752382E0
1.390514779E1,2.765762240E-2,6.987010476E-1,2.389764639E0,2.489964483E0
1.391515679E1,2.017239699E-1,8.709062263E-1,2.348102642E0,2.512519897E0
1.392516579E1,5.880357671E-1,1.039749841E0,2.335451022E0,2.623203627E0
1.393517479E1,9.127064361E-1,1.304075856E0,2.331614079E0,2.823131433E0
1.394518379E1,9.514297680E-1,1.479402278E0,2.043970245E0,2.696602319E0
1.395519279E1,7.382142652E-1,1.504882397E0,1.488952535E0,2.242010478E0
1.396520179E1,4.012904634E-1,1.535043797E0,9.074118555E-1,1.827782747E0
1.397521079E1,2.633015826E-2,1.484486724E0,4.148026478E-1,1.541575606E0
1.398521979E1,-5.699060364E-1,1.187322747E0,1.947608131E-1,1.331337662E0
1.399522879E1,-1.183321058E0,6.322094348E-1,7.233567095E-1,1.524198946E0
1.400523779E1,-1.415715575E0,-1.949315518E-2,2.201021780E0,2.617083768E0
1.401524679E1,-9.331353651E-1,-5.855661955E-1,3.766211482E0,3.924025778E0
1.402525579E1,-4.286056216E-1,-1.060770289E0,5.135565069E0,5.261460345E0
1.403526479E1,1.409997582E-2,-1.535343760E0,6.163792679E0,6.352150774E0
1.404527379E1,3.977194591E-1,-1.773994651E0,6.401349848E0,6.654511076E0
1.405528279E1,5.608563007E-1,-1.729862498E0,5.397805089E0,5.695900617E0
1.406529179E1,3.370292344E-1,-1.445134086E0,3.394052578E0,3.704267017E0
1.407530079E1,-2.264317451E-1,-1.164104330E0,1.317374763E0,1.772536739E0
1.408530979E1,-6.779553457E-1,-9.831730592E-1,-4.718059838E-1,1.284076945E0
1.409531879E1,-1.215340850E0,-8.785491219E-1,-1.785940220E0,2.332055833E0
1.410532779E1,-1.839663560E0,-8.519814205E-1,-2.279970301E0,3.050983272E0
1.411533679E1,-2.175380424E0,-7.902780926E-1,-2.014665754E0,3.068500864E0
1.412534579E1,-2.006780199E0,-6.620249721E-1,-1.390759658E0,2.529754190E0
1.413535479E1,-1.642794680E0,-7.287241611E-1,-6.674567431E-1,1.917110264E0
1.414536279E1,-1.218727923E0,-1.013534727E0,-8.824091613E-2,1.587556881E0
1.415537179E1,-6.631985083E-1,-1.151587780E0,2.176766360E-1,1.346614197E0
1.416538079E1,-1.634299333E-1,-1.122164007E0,9.270643473E-2,1.137785517E0
1.417538979E1,1.975460612E-1,-1.055544340E0,-4.885494858E-1,1.179779174E0
1.418539879E1,3.858934655E-1,-9.766554603E-1,-1.186073197E0,1.584152544E0
1.419540779E1,5.286495811E-1,-8.977037233E-1,-1.868728023E0,2.139506199E0
1.420541679E1,6.755218808E-1,-7.748122072E-1,-2.467798655E0,2.673330127E0
1.421542579E1,8.180579949E-1,-6.300778323E-1,-3.046112257E0,3.216367025E0
1.422543479E1,8.518150672E-1,-5.472640094E-1,-3.522017139E0,3.664654353E0
1.423544379E1,9.289777024E-1,-4.160112673E-1,-3.751870601E0,3.887492502E0
1.424545354E1,9.316315343E-1,-2.709196275E-1,-3.771671028E0,3.894462363E0
1.425546254E1,8.895313624E-1,-1.534072575E-1,-3.833300096E0,3.938145434E0
1.426547154E1,8.196080918E-1,-7.130942613E-2,-3.978483537E0,4.062655992E0
1.427548054E1,7.698591770E-1,5.870341390E-2,-4.118686320E0,4.190430317E0
1.428548954E1,6.728965540E-1,2.184516844E-1,-4.249837028E0,4.308320517E0
1.429549854E1,5.866551664E-1,2.719344118E-1,-4.120137599E0,4.170569079E0
1.430550754E1,7.321687558E-1,2.510215527E-1,-3.593720375E0,3.676126907E0
1.431551654E1,1.010359835E0,2.433912286E-1,-2.766078574E0,2.954870042E0
1.432552554E1,1.135903648E0,3.247198588E-1,-2.111213810E0,2.419285811E0
1.433553454E1,1.074325962E0,4.943952397E-1,-1.750310211E0,2.112389349E0
1.434554354E1,8.104967411E-1,6.864353433E-1,-1.587904381E0,1.910376605E0
1.435555254E1,5.846949239E-1,8.710097221E-1,-1.355924286E0,1.714367743E0
1.436556154E1,4.377898433E-1,1.042517036E0,-9.748033547E-1,1.492897618E0
1.437557054E1,3.664248320E-1,1.148719429E0,-4.367940259E-1,1.282424464E0
1.438557954E1,3.045048648E-1,1.237153303E0,2.916977084E-1,1.307042104E0
1.439558754E1,2.525830882E-1,1.274940934E0,8.987883818E-1,1.580219338E0
1.440559654E1,2.703599394E-1,1.308945417E0,1.329989546E0,1.885551589E0
1.441560554E1,3.237452010E-1,1.307323399E0,1.490280438E0,2.008691417E0
1.442561454E1,3.015336387E-1,1.273088244E0,1.349491180E0,1.879575126E0
1.443562354E1,2.054342475E-1,1.191487718E0,1.436783677E0,1.877816165E0
1.444563254E1,1.904271492E-1,1.025842531E0,2.020473794E0,2.273967842E0
1.445564154E1,4.351665265E-1,8.023599020E-1,2.744709924E0,2.892504777E0
1.446565054E1,7.023847935E-1,5.875831926E-1,3.390115648E0,3.511621066E0
1.447565954E1,8.868613775E-1,5.280597067E-1,3.754911153E0,3.894191563E0
1.448566854E1,1.004372140E0,6.218940693E-1,3.812363555E0,3.991194246E0
1.449567754E1,1.143609620E0,8.492817611E-1,3.511155936E0,3.789107873E0
1.450568654E1,1.082521273E0,1.048517156E0,3.087549135E0,3.435724115E0
1.451569554E1,7.445682152E-1,1.139022406E0,2.752644596E0,3.070636114E0
1.452570454E1,2.348377754E-1,1.098281054E0,2.716941497E0,2.939921964E0
1.453571354E1,-2.835011911E-1,9.546596968E-1,2.909779161E0,3.075477659E0
1.454572254E1,-5.751788362E-1,7.185005969E-1,3.186963496E0,3.317199138E0
1.455573154E1,-5.424155347E-1,4.081064165E-1,3.389057887E0,3.456367865E0
1.456574054E1,-1.978584122E-1,3.409277558E-2,3.253776705E0,3.259965202E0
1.457574954E1,3.380901021E-1,-3.322732919E-1,2.959388108E0,2.997113350E0
1.458575854E1,9.172493573E-1,-5.589628261E-1,2.655117132E0,2.864163544E0
1.459576754E1,1.363903981E0,-6.623369211E-1,2.358578514E0,2.803893164E0
1.460577654E1,1.492564214E0,-7.500328767E-1,2.078712062E0,2.666709786E0
1.461578554E1,1.519546045E0,-7.854488772E-1,1.841389366E0,2.513297618E0
1.462579354E1,1.542341123E0,-8.416584536E-1,1.537576811E0,2.334812100E0
1.463580254E1,1.571022739E0,-9.568980110E-1,1.033174354E0,2.109790391E0
1.464581154E1,1.525643229E0,-1.116995653E0,4.867637461E-1,1.952487002E0
1.465582054E1,1.321095639E0,-1.260161512E0,9.096630335E-2,1.827997700E0
1.466582954E1,1.113022031E0,-1.316414942E0,-1.039868832E-1,1.727014654E0
1.467583854E1,9.230014826E-1,-1.357291658E0,-1.608709359E-1,1.649257966E0
1.468584754E1,7.365418153E-1,-1.391828822E0,-3.960962355E-2,1.575198475E0
1.469585654E1,5.855948834E-1,-1.435675922E0,1.613223410E-1,1.558881528E0
1.470586554E1,5.447225902E-1,-1.492164119E0,2.769562930E-1,1.612445734E0
1.471587454E1,6.415624948E-1,-1.513089257E0,2.263790470E-1,1.659002413E0
1.472588354E1,7.231643361E-1,-1.457734251E0,-7.961217999E-2,1.629200388E0
1.473589254E1,6.858570537E-1,-1.368984335E0,-5.045603317E-1,1.612172179E0
1.474590154E1,6.036096432E-1,-1.270152357E0,-1.014432859E0,1.733985478E0
1.475591054E1,4.903940265E-1,-1.180733227E0,-1.537846368E0,1.999897174E0
1.476591954E1,3.781968851E-1,-1.078264281E0,-2.008216860E0,2.310545758E0
1.477592854E1,2.855211848E-1,-1.009053713E0,-2.434448476E0,2.650707665E0
1.478593754E1,2.034427955E-1,-9.483128366E-1,-2.793889101E0,2.957448650E0
1.479594654E1,2.070762553E-1,-8.817188975E-1,-3.093784606E0,3.223633350E0
1.480595554E1,1.982442553E-1,-7.865119010E-1,-3.234865640E0,3.335004868E0
1.481596454E1,3.063894224E-1,-6.432823071E-1,-3.331152325E0,3.406502960E0
1.482597354E1,3.356176069E-1,-4.457507908E-1,-3.340518395E0,3.386797321E0
1.483598254E1,2.373671712E-1,-3.170190758E-1,-3.238364030E0,3.262490744E0
1.484599154E1,3.167184558E-1,-2.181982076E-1,-3.080411439E0,3.104328538E0
1.485600054E1,4.438133159E-1,-4.155177623E-2,-2.980794765E0,3.013939986E0
1.486600854E1,4.768928421E-1,9.573587716E-2,-2.913735972E0,2.954056441E0
1.487601754E1,4.747943495E-1,2.236802647E-1,-2.895449975E0,2.942633700E0
1.488602654E1,5.735546259E-1,3.430783617E-1,-2.767186037E0,2.846750118E0
1.489603554E1,6.143016060E-1,3.940459093E-1,-2.454458817E0,2.560665290E0
1.490604454E1,7.093999904E-1,4.319232953E-1,-2.077739670E0,2.237589823E0
1.491605354E1,7.321880516E-1,4.454572606E-1,-1.634825363E0,1.845856300E0
1.492606254E1,6.741785561E-1,4.088671392E-1,-1.009028862E0,1.280557811E0
1.493607154E1,6.385893318E-1,3.825850743E-1,-3.899309313E-1,8.403652807E-1
1.494608054E1,5.266728568E-1,3.423009744E-1,1.335153222E-1,6.421686666E-1
1.495608954E1,3.925100651E-1,3.365534538E-1,5.992729461E-1,7.914925410E-1
1.496609854E1,3.659865832E-1,3.573479068E-1,9.551233810E-1,1.083468679E0
1.497610754E1,4.614973060E-1,3.566096959E-1,1.023603632E0,1.178097888E0
1.498611654E1,6.543024813E-1,4.281345919E-1,7.863856012E-1,1.108969467E0
1.499612554E1,6.116665582E-1,6.193353277E-1,4.313982153E-1,9.715022629E-1
1.500613454E1,3.925440520E-1,7.523919359E-1,3.344344229E-1,9.121572458E-1
1.501614354E1,3.976832795E-1,8.440812474E-1,2.845775539E-1,9.755047551E-1
1.502615254E1,4.268330017E-1,8.984182531E-1,2.563431036E-1,1.027157999E0
1.503616154E1,3.994678131E-1,1.088634903E0,5.945051265E-1,1.303125792E0
1.504617054E1,4.507365654E-1,1.447076239E0,1.217560453E0,1.944131309E0
1.505617954E1,1.361206953E-1,1.634757828E0,1.806424770E0,2.440109106E0
1.506618854E1,-2.633786928E-1,1.470325938E0,2.134246577E0,2.605040336E0
1.507619754E1,-6.168194170E-1,1.262960282E0,2.307651604E0,2.701997556E0
1.508620654E1,-8.219318484E-1,1.187166333E0,2.359369642E0,2.766145509E0
1.509621554E1,-9.041096404E-1,9.059430349E-1,2.377553898E0,2.700168432E0
1.510622454E1,-8.825214279E-1,4.530984020E-1,2.590631114E0,2.774078550E0
1.511623254E1,-5.718737707E-1,7.735223114E-2,3.031097776E0,3.085543179E0
1.512624154E1,-1.292392534E-1,-2.374829096E-1,3.536400120E0,3.546720559E0
1.513625054E1,2.820337227E-1,-5.158738169E-1,3.834359027E0,3.879172329E0
1.514625954E1,5.738140961E-1,-7.290966287E-1,3.831826597E0,3.942554956E0
1.515626854E1,5.412174768E-1,-8.397543079E-1,3.504433392E0,3.644057773E0
1.516627754E1,3.094085591E-1,-8.612591976E-1,2.975843343E0,3.113381548E0
1.517628654E1,-3.988656230E-2,-8.709448180E-1,2.336837981E0,2.494182745E0
1.518629554E1,-2.739648940E-1,-8.742242289E-1,1.500280931E0,1.757887265E0
1.519630454E1,-5.153768767E-1,-8.908715442E-1,8.338211381E-1,1.324584132E0
1.520631354E1,-6.445389468E-1,-9.327972499E-1,5.793438810E-1,1.273255864E0
1.521632254E1,-7.425637165E-1,-1.071226280E0,7.234976274E-1,1.490763372E0
1.522633154E1,-6.499478406E-1,-1.242933276E0,1.004701338E0,1.725323188E0
1.523634054E1,-5.583384897E-1,-1.308364204E0,1.154563721E0,1.832096107E0
1.524634854E1,-6.187756761E-1,-1.223861705E0,1.099310457E0,1.757613237E0
1.525635754E1,-7.948681569E-1,-1.075293018E0,7.435605937E-1,1.530017261E0
1.526636654E1,-8.931468420E-1,-9.590503711E-1,2.002829236E-1,1.325745883E0
1.527637554E1,-7.585329010E-1,-8.418765548E-1,-4.899955022E-1,1.234594625E0
1.528638454E1,-4.763433135E-1,-8.024569657E-1,-1.309572823E0,1.608048853E0
1.529639354E1,-1.150499248E-1,-7.298684612E-1,-1.967117951E0,2.101308518E0
1.530640254E1,1.988232758E-1,-6.446113792E-1,-2.485609859E0,2.575521480E0
1.531641154E1,4.716111619E-1,-6.149434841E-1,-2.981963623E0,3.081019251E0
1.532642054E1,5.373975274E-1,-5.558298880E-1,-3.331441178E0,3.419977089E0
1.533642954E1,4.346638121E-1,-4.394170868E-1,-3.585740680E0,3.638620099E0
1.534643854E1,2.821333812E-1,-3.131236607E-1,-3.660483298E0,3.684668730E0
1.535644654E1,1.387590687E-1,-1.599637404E-1,-3.574554371E0,3.580821335E0
1.536645554E1,4.431732651E-2,-5.185281605E-2,-3.321825432E0,3.322525687E0
1.537646454E1,-6.045757860E-2,-4.215930194E-2,-3.007198452E0,3.008101570E0
1.538647354E1,-1.268973704E-1,3.313617110E-3,-2.756292674E0,2.759214241E0
1.539648254E1,-2.295457529E-1,1.199290243E-1,-2.555400470E0,2.568490955E0
1.540649154E1,-3.283452056E-1,2.422720715E-1,-2.399813663E0,2.434257987E0
1.541650054E1,-2.895546307E-1,3.360383141E-1,-2.084920051E0,2.131585150E0
1.542650954E1,-1.032618650E-1,3.461285618E-1,-1.632103484E0,1.671594980E0
1.543651854E1,8.343311615E-2,4.442305148E-1,-1.296680882E0,1.373201786E0
1.544652754E1,7.350790612E-2,5.651465490E-1,-1.024500595E0,1.172346153E0
1.545653654E1,-5.574512478E-2,6.937043095E-1,-6.582567340E-1,9.579327303E-1
1.546654554E1,-1.995228221E-1,8.660699943E-1,-3.244345146E-1,9.461206825E-1
1.547655454E1,-3.571887895E-1,1.019693599E0,-6.032981694E-2,1.082126866E0
1.548656354E1,-6.147666058E-1,1.141558928E0,1.311729276E-1,1.303188821E0
1.549657254E1,-8.808815762E-1,1.213422086E0,2.433096600E-1,1.519060598E0
1.550658154E1,-9.762329990E-1,1.318117944E0,2.844027221E-1,1.664737424E0
1.551659054E1,-9.226098653E-1,1.430764554E0,2.348621875E-1,1.718562311E0
1.552659954E1,-7.061121011E-1,1.639744626E0,8.408179164E-2,1.787295858E0
1.553660854E1,-3.802234935E-1,1.824053833E0,-2.893711013E-1,1.885597498E0
1.554661754E1,-1.979448413E-1,1.906171837E0,-7.343640929E-1,2.052306959E0
1.555662654E1,-1.686764572E-1,1.832407750E0,-7.401428962E-1,1.983426686E0
1.556663554E1,-1.736355539E-1,1.750505216E0,-8.615170598E-2,1.761204114E0
1.557664454E1,-2.617706354E-1,1.531955006E0,9.391248143E-1,1.815864924E0
1.558665354E1,-3.142164322E-1,1.195127610E0,2.029758587E0,2.376337917E0
1.559666254E1,-2.255589020E-1,9.586790729E-1,2.792645398E0,2.961217774E0
1.560667054E1,-1.344910763E-1,8.901514596E-1,3.279487497E0,3.400808097E0
1.561667954E1,1.023558389E-1,9.474252293E-1,3.431456047E0,3.561317437E0
1.562668854E1,4.085935992E-1,1.077581034E0,3.014734343E0,3.227499462E0
1.563669754E1,6.040407292E-1,1.222588766E0,2.270193172E0,2.648275954E0
1.564670654E1,3.781872738E-1,1.202007152E0,1.857725317E0,2.244769511E0
1.565671554E1,-1.313414371E-1,9.157897460E-1,2.076435156E0,2.273214550E0
1.566672454E1,-6.430991431E-1,4.598498896E-1,2.957021740E0,3.060884839E0
1.567673354E1,-8.004535635E-1,-4.105710179E-2,3.915711923E0,3.996900231E0
1.568674254E1,-6.883880210E-1,-4.480730125E-1,4.305182678E0,4.382835313E0
1.569675154E1,-5.008663898E-1,-7.539823785E-1,4.332376324E0,4.425928285E0
1.570676054E1,-1.206207864E-1,-1.048998967E0,3.963086649E0,4.101341730E0
1.571676954E1,4.842069049E-1,-1.204880181E0,2.989959106E0,3.259761959E0
1.572677854E1,8.293206824E-1,-1.169739584E0,1.717381616E0,2.237289231E0
1.573678754E1,8.265406238E-1,-1.164729982E0,5.536178863E-1,1.531750012E0
1.574679654E1,7.719801814E-1,-1.157164562E0,-3.320727324E-1,1.430124304E0
1.575680554E1,7.278195237E-1,-1.187056698E0,-9.841080290E-1,1.705078730E0
1.576681454E1,7.841091339E-1,-1.327509449E0,-1.238823853E0,1.977825323E0
1.577682354E1,8.208815423E-1,-1.479102316E0,-1.120018955E0,2.028800786E0
1.578683254E1,7.689458419E-1,-1.652127859E0,-7.654028678E-1,1.976523645E0
1.579684154E1,6.764542924E-1,-1.778970923E0,-3.879545724E-1,1.942379136E0
1.580685054E1,4.818831483E-1,-1.879558235E0,-2.007922161E-1,1.950709625E0
1.581685954E1,2.245152836E-1,-1.934113050E0,-2.387125790E-1,1.961678898E0
1.582686854E1,-1.799586598E-2,-1.911095778E0,-4.221882659E-1,1.957256717E0
1.583687754E1,-2.648090679E-1,-1.831756663E0,-6.762690818E-1,1.970481206E0
1.584688654E1,-5.116759181E-1,-1.751077658E0,-9.592696416E-1,2.061136448E0
1.585689554E1,-6.209304482E-1,-1.651919113E0,-1.138100300E0,2.099919921E0
1.586690354E1,-5.485968822E-1,-1.564711400E0,-1.246669647E0,2.074479576E0
1.587691254E1,-2.402141074E-1,-1.502313423E0,-1.426945152E0,2.085862149E0
1.588692154E1,1.343664575E-1,-1.407226879E0,-1.693595143E0,2.206038609E0
1.589693054E1,3.603499039E-1,-1.247078952E0,-2.045746629E0,2.422836609E0
1.590693954E1,4.028112145E-1,-1.071846085E0,-2.475745606E0,2.727714649E0
1.591694854E1,3.278479730E-1,-8.440064031E-1,-2.857904418E0,2.997907398E0
1.592695754E1,2.168538962E-1,-6.739211324E-1,-3.123701300E0,3.202921341E0
1.593696654E1,1.018047388E-1,-5.153387967E-1,-3.347209364E0,3.388177801E0
1.594697554E1,-7.198708188E-2,-3.715110326E-1,-3.511267033E0,3.531600029E0
1.595698454E1,-2.657334031E-1,-2.630785114E-1,-3.376667637E0,3.397309063E0
1.596699354E1,-3.012402912E-1,-1.778863335E-1,-3.070874630E0,3.090737817E0
1.597700254E1,-3.252416862E-1,-1.011559537E-1,-2.708527939E0,2.729860487E0
1.598701154E1,-2.959689898E-1,-2.166130275E-2,-2.304572461E0,2.323600887E0
1.599702054E1,-1.668772324E-1,1.461011615E-1,-1.891963688E0,1.904919987E0
1.600702954E1,6.515380640E-2,2.063970646E-1,-1.597691451E0,1.612284943E0
1.601703854E1,3.133799880E-1,2.290024003E-1,-1.323754075E0,1.379483225E0
1.602704754E1,4.073809963E-1,3.179265636E-1,-8.225307494E-1,9.713873634E-1
1.603705654E1,3.682373227E-1,4.156259358E-1,-3.008006537E-1,6.315256745E-1
1.604706554E1,3.329668814E-1,4.180969691E-1,-2.519565225E-2,5.350764810E-1
1.605707454E1,2.149251190E-1,4.463933998E-1,1.751895976E-1,5.255009698E-1
1.606708354E1,-7.723514065E-3,5.160837319E-1,3.496482933E-1,6.234228100E-1
1.607709254E1,-2.180614924E-1,5.771295404E-1,5.300015670E-1,8.133455489E-1
1.608710154E1,-2.023236749E-1,6.499300066E-1,6.685150892E-1,9.540735335E-1
1.609711054E1,-1.158481063E-1,7.526343030E-1,9.667932540E-1,1.230678014E0
1.610711954E1,7.469196729E-2,7.531541204E-1,1.421088581E0,1.610066078E0
1.611712854E1,2.948783379E-1,7.039489236E-1,1.888465884E0,2.036860505E0
1.612713754E1,4.062199951E-1,8.259244734E-1,2.216066666E0,2.399607757E0
1.613714554E1,3.946441161E-1,1.084443034E0,2.304996384E0,2.577744945E0
1.614715454E1,3.747418020E-1,1.329862661E0,2.123426304E0,2.533358519E0
1.615716354E1,4.045730537E-1,1.521213086E0,1.778347026E0,2.374928789E0
1.616717254E1,3.353831336E-1,1.592387734E0,1.261783530E0,2.059193584E0
1.617718154E1,7.581722740E-2,1.554545431E0,7.842940521E-1,1.742835881E0
1.618719054E1,-2.792458434E-1,1.512132945E0,4.816667283E-1,1.611374296E0
1.619719954E1,-6.880010084E-1,1.381284245E0,4.200937933E-1,1.599303082E0
1.620720854E1,-1.173587345E0,9.800357357E-1,8.969313061E-1,1.772642961E0
1.621721754E1,-1.363258741E0,3.198549753E-1,1.885111921E0,2.348282043E0
1.622722654E1,-1.061547091E0,-1.811733457E-1,2.926599262E0,3.118443401E0
1.623723554E1,-5.503093855E-1,-6.188082013E-1,4.015881743E0,4.100374396E0
1.624724479E1,-1.154523960E-1,-1.059787956E0,4.886995838E0,5.001920440E0
1.625725379E1,2.504348942E-1,-1.415952094E0,5.163668541E0,5.360140929E0
1.626726279E1,6.173641583E-1,-1.500777360E0,4.463875526E0,4.749700612E0
1.627727179E1,6.481533301E-1,-1.332347728E0,2.927343612E0,3.280944046E0
1.628728079E1,1.814792648E-1,-1.122226572E0,1.235842942E0,1.679176875E0
1.629728979E1,-4.205743613E-1,-1.001195055E0,-3.250186515E-1,1.133539349E0
1.630729879E1,-1.038058680E0,-9.331568536E-1,-1.362388968E0,1.950500253E0
1.631730779E1,-1.658366253E0,-9.271918166E-1,-1.463128307E0,2.398042481E0
1.632731679E1,-1.792656478E0,-9.738894349E-1,-7.451878738E-1,2.171953693E0
1.633732579E1,-1.439241993E0,-9.999115911E-1,1.071122199E-1,1.755765853E0
