"Time (s)","Linear Acceleration x (m/s^2)","Linear Acceleration y (m/s^2)","Linear Acceleration z (m/s^2)","Absolute acceleration (m/s^2)"
8.315708333E-3,4.715568924E0,1.990138439E0,-3.171637359E0,6.021339122E0
1.831570833E-2,4.434370476E0,1.878109880E0,-2.066842799E0,5.240494003E0
2.831570833E-2,4.952893959E0,1.858907624E0,7.089982867E-2,5.290720452E0
3.831570833E-2,3.973261389E0,2.410751465E0,2.728251767E0,5.389052457E0
4.831570833E-2,3.301682358E0,1.510812351E0,5.035668313E0,6.208189407E0
5.831570833E-2,2.230718034E0,1.411186321E0,4.672483715E0,5.366530895E0
6.831570833E-2,1.598594846E0,2.781512300E0,2.640134811E0,4.154831883E0
7.831670833E-2,4.064363347E0,5.941144155E0,-1.702642832E0,7.396974781E0
8.831670833E-2,-1.650868953E0,8.570832331E0,-8.016646680E0,1.185120918E1
9.831670833E-2,-8.153041756E0,5.554116951E0,-9.089041234E0,1.341383523E1
1.083167083E-1,-7.409984023E0,-7.336027855E-1,-8.844397824E0,1.156154873E1
1.183167083E-1,-1.031394345E1,-3.726596012E0,-4.034402214E0,1.168509087E1
1.283167083E-1,-1.297906926E1,-2.537637506E0,-5.735431507E-1,1.323725027E1
1.383167083E-1,-1.296002137E1,-2.652875894E-1,1.002434665E0,1.300143864E1
1.483177083E-1,-1.252436171E1,1.415881636E0,2.646234919E0,1.287893304E1
1.583177083E-1,-1.467854261E1,3.662577186E0,9.145352844E0,1.767799659E1
1.683177083E-1,-6.160304230E0,-7.011513233E-2,4.785934902E0,7.801245876E0
1.783177083E-1,-1.493636740E0,-2.802377504E-1,2.369376128E0,2.814858282E0
1.883177083E-1,-2.265852783E0,1.542730547E0,1.508527259E0,3.128859356E0
1.983177083E-1,-3.414754061E0,1.216503861E0,8.396022803E-1,3.720935222E0
2.083177083E-1,-1.113584095E0,4.853276700E-1,1.267013279E0,1.755259278E0
2.183177083E-1,3.852857863E0,-4.844815779E-1,1.870842376E0,4.310369741E0
2.283187083E-1,8.367425240E0,-1.549930809E0,2.133537894E0,8.773145081E0
2.383187083E-1,1.262485663E1,-2.059199903E0,7.511754227E-1,1.281372599E1
2.483187083E-1,1.453012390E1,-2.719386218E0,-1.669896816E0,1.487642825E1
2.583187083E-1,1.395763471E1,-2.985833310E0,-1.826008265E0,1.438975586E1
2.683187083E-1,1.064701840E1,-1.538476698E0,-1.303192341E-1,1.075838716E1
2.783187083E-1,6.342251455E0,-1.639220130E-1,1.981782768E0,6.646689919E0
2.883187083E-1,4.062936627E0,-3.403711009E-1,3.412283027E0,5.316670196E0
2.983187083E-1,3.172452461E0,-1.114575198E0,3.113483291E0,4.582631415E0
3.083197083E-1,2.675191208E0,-8.941053468E-1,2.084228325E0,3.507147000E0
3.183197083E-1,1.830582542E0,-9.966871440E-2,5.805630255E-1,1.923023588E0
3.283197083E-1,9.132672572E-1,-3.178487957E-2,8.229371309E-2,9.175181834E-1
3.383197083E-1,1.746358663E-1,-2.765943503E-1,6.088381138E-1,6.911482976E-1
3.483197083E-1,-2.059225631E-1,-2.595146334E-1,1.303354017E0,1.344798736E0
3.583197083E-1,-3.914044297E-1,9.251581550E-2,1.751384345E0,1.796970708E0
3.683197083E-1,-3.414224303E-1,6.171613330E-1,1.987873520E0,2.109288628E0
3.783197083E-1,-4.877659589E-1,9.214288008E-1,2.227825416E0,2.459705826E0
3.883207083E-1,-1.672821155E0,-4.024059659E-1,1.389565072E0,2.211594960E0
3.983210833E-1,-3.286681327E0,-1.720265463E0,1.476079890E-1,3.712596871E0
4.083210833E-1,-4.425665726E0,-9.880946606E-1,5.239312801E-1,4.564794865E0
4.183210833E-1,-5.100080656E0,3.247502643E-1,1.618281544E0,5.360514955E0
4.283210833E-1,-5.599107767E0,1.238809234E0,2.330891071E0,6.190129990E0
4.383210833E-1,-6.238631192E0,1.630582039E0,2.644274640E0,6.969326029E0
4.483210833E-1,-6.448046297E0,1.797700140E0,2.711008035E0,7.222090515E0
4.583220833E-1,-6.281091333E0,2.094742203E0,2.983466942E0,7.262308740E0
4.683220833E-1,-1.475176495E1,9.641097913E0,1.526367231E1,2.331405221E1
4.783220833E-1,-1.641965515E1,9.888567867E0,1.154764280E1,2.237715138E1
4.883220833E-1,-7.204019945E0,3.400247703E0,-3.441302174E0,8.677681053E0
4.983220833E-1,-5.282357079E0,2.443904593E0,-1.901799874E1,1.988869634E1
5.083220833E-1,-3.928429617E0,4.922893649E0,-1.043486153E1,1.218826388E1
5.183220833E-1,3.618435386E-1,4.998178890E0,-6.012436332E0,7.827011793E0
5.283220833E-1,6.762427694E0,2.256832284E-1,-1.107317400E1,1.297676938E1
5.383230833E-1,8.982410824E0,-9.225847954E-1,-1.039390997E1,1.376837795E1
5.483230833E-1,7.820131702E0,-4.667890728E-1,-8.248546084E0,1.137588961E1
5.583230833E-1,6.183759166E0,-6.986376053E-1,-6.776522992E0,9.200447586E0
5.683230833E-1,5.011910491E0,-1.031551752E0,-6.033182838E0,7.910919096E0
5.783230833E-1,6.277851391E0,-1.528886679E0,-4.879954621E0,8.097090198E0
5.883230833E-1,7.484947082E0,-6.837108332E-1,-1.328744674E0,7.632657187E0
5.983230833E-1,7.405055405E0,2.798027176E-1,1.514669175E0,7.563554576E0
6.083230833E-1,6.969664711E0,1.072635459E0,1.120331197E0,7.140162113E0
6.183240833E-1,5.538715385E0,2.152738981E0,1.198847609E0,6.062086178E0
6.283240833E-1,3.374035513E0,2.596875941E0,1.375949246E0,4.474496242E0
6.383240833E-1,1.628433333E0,2.781645616E0,1.329780800E0,3.486784254E0
6.483240833E-1,-4.160631613E-1,1.463210168E0,-2.067984760E-1,1.535206228E0
6.583240833E-1,-1.608289091E0,2.273294535E0,-4.617171979E-1,2.822701651E0
6.683240833E-1,-1.960488085E0,3.442395603E0,1.077172606E0,4.105350392E0
6.783240833E-1,-2.762237538E0,3.866927433E0,2.447439820E0,5.345376101E0
6.883250833E-1,-4.058516132E0,2.895178664E0,3.102965612E0,5.872138305E0
6.983250833E-1,-4.605267925E0,9.101641399E-1,3.761741286E0,6.015612099E0
7.083250833E-1,-5.623232794E0,-4.711544285E0,4.125718766E0,8.416706716E0
7.183250833E-1,-7.208910556E0,-1.347277307E1,4.687439431E0,1.598299390E1
7.283250833E-1,-8.128074730E0,-2.158329621E1,5.979789573E0,2.382566174E1
7.383250833E-1,-7.479862343E0,-2.491062855E1,7.531983254E0,2.707800818E1
7.483250833E-1,-5.785350357E0,-1.875037519E1,7.921653399E0,2.116127220E1
7.583250833E-1,-4.996725857E0,-7.839341560E0,6.675076139E0,1.144461388E1
7.683260833E-1,-4.544920274E0,5.193379998E-2,5.454761063E0,7.100240536E0
7.783260833E-1,-3.710060378E0,4.221546444E0,4.002035537E0,6.899441342E0
7.883260833E-1,-2.430980785E0,6.502596141E0,1.942443870E0,7.208780225E0
7.983260833E-1,-1.267090170E0,9.407096436E0,-4.261637878E-1,9.501610202E0
8.083260833E-1,-6.330919258E-1,1.076768037E1,-4.937840302E0,1.186279953E1
8.183260833E-1,6.741137981E-1,8.536501574E0,-6.063031704E0,1.049221816E1
8.283260833E-1,2.887720833E0,6.579696357E0,-2.919128859E0,7.755813887E0
8.383270833E-1,5.535055028E0,4.733314054E0,-1.040732758E-1,7.283675401E0
8.483270833E-1,6.417228547E0,3.043282204E0,1.576572039E0,7.275161042E0
8.583270833E-1,5.013373464E0,4.254574442E0,1.215127719E0,6.686692198E0
8.683270833E-1,2.395691815E0,5.925754284E0,-6.663298385E-1,6.426344105E0
8.783270833E-1,5.392837295E-1,6.179107706E0,-2.574888656E0,6.715820916E0
8.883270833E-1,-2.409264810E-1,5.423528160E0,-3.864008503E0,6.663577492E0
8.983270833E-1,-5.620940101E-1,4.417607678E0,-3.992330328E0,5.980794991E0
9.083270833E-1,-5.486842250E-1,3.337455624E0,-3.515130873E0,4.878094861E0
9.183280833E-1,-4.858521652E-1,2.352761704E0,-2.946259940E0,3.801576988E0
9.283280833E-1,1.225781053E-1,1.569127802E0,-2.208507385E0,2.711953599E0
9.383280833E-1,7.907827073E-1,2.098624170E-1,-2.256983142E0,2.400698321E0
9.483280833E-1,1.566729859E0,-1.732562742E0,-3.416698844E0,4.138870269E0
9.583280833E-1,2.242491403E0,-3.311215659E0,-2.502425866E0,4.717526051E0
9.683280833E-1,2.419834822E0,-3.715413212E0,7.056222506E-1,4.489743719E0
9.783280833E-1,2.481211875E0,-4.841430826E0,9.561345108E-1,5.523591043E0
9.883290833E-1,2.227864885E0,-6.252564522E0,5.062753201E-1,6.656895654E0
9.983290833E-1,2.613759191E0,-4.249852231E0,2.604214196E0,5.628046968E0
1.008329083E0,1.984787213E0,-3.263455017E0,1.237059309E0,4.014951390E0
1.018329083E0,1.618544668E0,-1.066177794E0,-1.827114558E-1,1.946742255E0
1.028329083E0,1.704487921E0,1.303688770E0,-7.781264091E-1,2.282622218E0
1.038329083E0,7.386325604E-1,2.814229810E0,3.170477271E-2,2.909720378E0
1.048329083E0,-6.678221941E-2,3.809372120E0,-4.968718278E-1,3.842220377E0
1.058329083E0,5.184960008E-2,2.559946681E0,-2.875757722E0,3.850454241E0
1.068330083E0,-7.235657474E-1,-3.575262469E-1,-6.477614497E0,6.527699593E0
1.078330083E0,-4.355415523E-1,-1.921247129E0,-7.078606524E0,7.347622561E0
1.088330083E0,1.252692863E0,-3.454478289E0,-5.107905400E0,6.292325265E0
1.098330083E0,3.207656207E0,-6.834016324E0,-2.319916724E0,7.897775071E0
1.108330083E0,4.933311049E0,-1.110608680E1,1.175768721E0,1.220922414E1
1.118330083E0,5.798909465E0,-1.276068277E1,3.851932833E0,1.453615363E1
1.128330083E0,4.495535568E0,-1.114799848E1,4.838590833E0,1.295761056E1
1.138331083E0,4.369407910E-1,-4.788418799E0,3.025766870E0,5.681121104E0
1.148331083E0,-2.938153360E0,-2.409812987E-2,5.248765190E-1,2.984764856E0
1.158331083E0,-4.828683603E0,2.620556579E0,-1.313237858E-1,5.495520727E0
1.168331083E0,-6.128437489E0,3.931887075E0,-6.976160967E-1,7.314653119E0
1.178331083E0,-7.646415603E0,4.308161834E0,-2.317414116E0,9.077353037E0
1.188331083E0,-9.368690169E0,3.960506857E0,-3.852722792E0,1.087664668E1
1.198331083E0,-9.499408184E0,3.004235083E0,-2.883392431E0,1.037198805E1
1.208331083E0,-6.724437164E0,1.459761481E0,-1.090130328E0,6.966874686E0
1.218332083E0,-3.925499869E0,-2.698314607E-1,1.307051321E-1,3.936933080E0
1.228332083E0,-2.399558140E0,-2.015818825E0,1.314586810E0,3.398461900E0
1.238332083E0,-1.309494470E0,-3.377116703E0,2.142889931E0,4.208523524E0
1.248332083E0,-8.754527289E-1,-3.848219267E0,2.498255632E0,4.670812585E0
1.258332083E0,-1.205221951E0,-2.780420040E0,2.425380614E0,3.881464501E0
1.268332083E0,-1.507145270E0,-1.074318287E0,2.251335901E0,2.914474221E0
1.278332083E0,-1.564176380E0,2.849389118E-1,2.147640209E0,2.672114593E0
1.288333083E0,-1.404111190E0,1.249523672E0,2.051287451E0,2.782196587E0
1.298333083E0,-1.003131068E0,1.704532945E0,1.792144700E0,2.668986161E0
1.308333083E0,-3.306857729E-1,1.509354640E0,1.369153612E0,2.064482047E0
1.318333083E0,4.825581363E-1,8.388409728E-1,1.005515270E0,1.395556338E0
1.328333083E0,1.096241545E0,2.755997390E-1,6.291370153E-1,1.293643740E0
1.338333083E0,1.430813378E0,1.437479496E-2,3.374077320E-1,1.470128407E0
1.348333083E0,1.446505258E0,1.450840384E-1,-5.718540363E-3,1.453774240E0
1.358334083E0,1.204246635E0,6.400069892E-1,-3.877382255E-1,1.417801057E0
1.368334083E0,8.697666040E-1,1.206931969E0,-6.977038050E-1,1.643158338E0
1.378334083E0,6.052783290E-1,1.489679929E0,-8.921950614E-1,1.838891017E0
1.388334083E0,3.905475202E-1,1.446191847E0,-9.227239591E-1,1.759379928E0
1.398334833E0,1.626625228E-1,1.197225591E0,-8.422317731E-1,1.472807717E0
1.408334833E0,-8.594179094E-2,7.895366657E-1,-7.342910028E-1,1.081636452E0
1.418334833E0,-2.765633601E-1,2.722896302E-1,-6.394045798E-1,7.479753683E-1
1.428335833E0,-4.800490960E-1,-1.525901091E-1,-5.973538169E-1,7.813849618E-1
1.438335833E0,-6.953836298E-1,-3.614503133E-1,-5.140321632E-1,9.372479856E-1
1.448335833E0,-7.874114951E-1,-3.351355040E-1,-3.589547217E-1,9.279984703E-1
1.458335833E0,-8.668655080E-1,-7.485137701E-2,-1.801340032E-1,8.885419498E-1
1.468335833E0,-9.411342099E-1,2.579364699E-1,-3.848673888E-3,9.758481623E-1
1.478335833E0,-8.575061622E-1,4.667235839E-1,1.896018147E-1,9.945333429E-1
1.488335833E0,-7.008577931E-1,5.211395270E-1,3.162758581E-1,9.288802243E-1
1.498336833E0,-4.634891966E-1,4.341826594E-1,3.899273865E-1,7.452383403E-1
1.508336833E0,-2.206186625E-1,2.197868961E-1,3.629079876E-1,4.782061077E-1
1.518336833E0,8.118215740E-2,-1.479813337E-2,2.925548371E-1,3.039701632E-1
1.528336833E0,4.602814141E-1,-1.886685991E-1,1.520228561E-1,5.201593691E-1
1.538336833E0,8.488144223E-1,-2.242752188E-1,6.358810477E-3,8.779668170E-1
1.548336833E0,1.159318384E0,-8.509102106E-2,-1.679063058E-1,1.174500798E0
1.558336833E0,1.461472230E0,9.142297089E-2,-3.080524071E-1,1.496380808E0
1.568336833E0,1.763474779E0,2.656115252E-1,-3.806467589E-1,1.823536326E0
1.578337833E0,2.000865448E0,4.586474097E-1,-4.269181518E-1,2.096682880E0
1.588337833E0,2.166738093E0,7.301242769E-1,-4.179707424E-1,2.324335381E0
1.598337833E0,2.327060414E0,9.832432258E-1,-4.081356891E-1,2.559013902E0
1.608337833E0,2.574045195E0,1.096003271E0,-3.527140615E-1,2.819811881E0
1.618337833E0,2.866850073E0,9.892869079E-1,-2.684730794E-1,3.044601078E0
1.628337833E0,3.211689616E0,7.184514803E-1,-1.932376865E-1,3.296735283E0
1.638337833E0,3.511908765E0,4.180788428E-1,-1.700715297E-1,3.540793331E0
1.648338833E0,3.679715668E0,2.430792797E-1,-1.275716275E-1,3.689941660E0
1.658338833E0,3.804331528E0,8.616223097E-2,-7.088871896E-2,3.805967356E0
1.668338833E0,3.903331028E0,-5.548364460E-2,2.907348912E-2,3.903833605E0
1.678338833E0,4.070335109E0,-2.211937362E-1,1.535928700E-1,4.079233425E0
1.688338833E0,4.291346412E0,-4.132975745E-1,3.021174101E-1,4.321775543E0
1.698338833E0,4.536611381E0,-5.362785530E-1,4.578323078E-1,4.591083524E0
1.708338833E0,4.841531398E0,-5.947811151E-1,6.096961927E-1,4.915884488E0
1.718339833E0,5.196974866E0,-6.815654898E-1,7.392342389E-1,5.293349274E0
1.728339833E0,5.535966609E0,-6.384709257E-1,8.862765098E-1,5.642699484E0
1.738339833E0,5.705615970E0,-2.785414732E-1,1.027283285E0,5.804045994E0
1.748339833E0,5.650313589E0,3.250309306E-1,1.099933770E0,5.765547941E0
1.758339833E0,5.605922112E0,8.729132831E-1,9.586720562E-1,5.753902366E0
1.768339833E0,5.713413232E0,1.114184604E0,5.977491252E-1,5.851649520E0
1.778339833E0,5.931658802E0,1.021561199E0,1.800123811E-2,6.019010506E0
1.788340833E0,6.124124583E0,7.135941982E-1,-7.011793900E-1,6.205301856E0
1.798340833E0,5.907510971E0,4.732900071E-1,-1.638876314E0,6.148870211E0
1.808340833E0,4.870354078E0,3.898058009E-1,-3.222765412E0,5.853077337E0
1.818340833E0,3.019523213E0,4.817439115E-1,-5.703177681E0,6.471153938E0
1.828340833E0,1.248099875E0,8.056176782E-2,-6.924356976E0,7.036402705E0
1.838340833E0,1.746800128E-1,-1.156479269E0,-4.952544880E0,5.088777672E0
1.848340833E0,-1.874474081E-1,-2.605408198E0,-9.712880087E-1,2.786877967E0
1.858341833E0,-1.776796344E-1,-3.732965384E0,1.755874422E0,4.129127703E0
1.868341833E0,-1.881426421E-1,-4.582038984E0,2.267308155E0,5.115776107E0
1.878341833E0,-4.688420302E-1,-5.184518543E0,1.892691082E0,5.539072567E0
1.888341833E0,-1.058201899E0,-5.417525994E0,1.785025277E0,5.801352807E0
1.898341833E0,-1.872434573E0,-5.295909755E0,1.932280386E0,5.940233906E0
1.908341833E0,-2.642110878E0,-4.872376045E0,2.033844183E0,5.904008839E0
1.918341833E0,-3.254152097E0,-4.091982670E0,1.807536911E0,5.531818664E0
1.928342833E0,-3.701528998E0,-3.161029340E0,1.306126328E0,5.039780689E0
1.938342833E0,-4.141312705E0,-2.220450323E0,5.497916146E-1,4.731082474E0
1.948342833E0,-4.052771827E0,-1.351700842E0,-1.370178044E-1,4.274438972E0
1.958342833E0,-3.301998693E0,-6.033566415E-1,-7.843075007E-2,3.357586333E0
1.968342833E0,-2.580784403E0,-1.608060318E-1,8.748874493E-1,2.729786578E0
1.978342833E0,-2.195068730E0,9.869222939E-2,1.956913536E0,2.942376161E0
1.988342833E0,-2.075566844E0,3.016204333E-1,2.504599861E0,3.266798597E0
1.998343833E0,-1.959580305E0,4.273063338E-1,2.385307306E0,3.116446152E0
2.008343833E0,-1.677848006E0,4.841132033E-1,1.882452607E0,2.567716368E0
2.018343833E0,-1.234744835E0,4.466968703E-1,1.202863476E0,1.780733962E0
2.028343833E0,-8.687553281E-1,4.111206561E-1,5.848421641E-1,1.125076162E0
2.038343833E0,-6.795253962E-1,3.099579781E-1,4.475319989E-1,8.706971933E-1
2.048343833E0,-7.319632262E-1,6.750610471E-2,5.906715457E-1,9.429846836E-1
2.058344833E0,-1.118729644E0,-1.114841831E-1,4.132646839E-1,1.197819869E0
2.068344833E0,-1.997132294E0,-1.840598238E-1,1.858419089E-1,2.014187834E0
2.078344833E0,-3.192501978E0,-3.055556095E-1,4.924232662E-1,3.244674681E0
2.088344833E0,-4.157929907E0,-3.898613495E-1,9.848209508E-1,4.290716175E0
2.098344833E0,-4.837349469E0,-2.464519536E-1,1.209889491E0,4.992446397E0
2.108344833E0,-5.161047235E0,1.291047674E-1,1.071985248E0,5.272781901E0
2.118344833E0,-5.021597573E0,5.474952668E-1,7.306107652E-1,5.103918626E0
2.128345833E0,-4.822670034E0,9.891378039E-1,2.804837720E-1,4.931045629E0
2.138345833E0,-4.698913715E0,1.431877863E0,-1.560692024E-1,4.914714835E0
2.148345833E0,-4.683026830E0,1.700101925E0,-2.726615131E-1,4.989532157E0
2.158345833E0,-4.820983697E0,1.760584354E0,3.562715806E-2,5.132524756E0
2.168345833E0,-5.113631578E0,1.587244815E0,5.634004243E-1,5.383864231E0
2.178345833E0,-5.490699220E0,1.314123126E0,1.053511628E0,5.743220722E0
2.188345833E0,-5.865156080E0,1.081732557E0,1.209994814E0,6.085580384E0
2.198346833E0,-6.129366027E0,1.078734689E0,1.144983058E0,6.328015694E0
2.208346833E0,-6.189350858E0,1.320719955E0,9.101518607E-1,6.393804944E0
2.218346833E0,-5.963489875E0,1.608046285E0,6.532662085E-1,6.210940434E0
2.228346833E0,-5.336174267E0,1.614787540E0,9.022144116E-2,5.575879708E0
2.238346833E0,-4.170526564E0,1.269619968E0,-4.897860988E-1,4.386925701E0
2.248346833E0,-2.473686216E0,9.074101013E-1,-4.756451925E-1,2.677453069E0
2.258347833E0,-3.360383141E-1,6.994614780E-1,-6.669543942E-1,1.023228358E0
2.268347833E0,2.190654082E0,4.116954374E-1,-2.167541792E0,3.109131046E0
2.278347833E0,5.538115461E0,-2.190074623E-2,-4.384141724E0,7.063419934E0
2.288347833E0,9.443477227E0,-5.270498925E-1,-3.860306046E0,1.021562560E1
2.298347833E0,1.289651242E1,-1.013996072E0,5.834421945E-1,1.294946429E1
2.308347833E0,1.586439420E1,-1.407678577E0,4.022506639E0,1.642684151E1
2.318347833E0,1.922488259E1,-1.780212287E0,2.082561284E0,1.941912274E1
2.328348833E0,2.083942279E1,-1.722814264E0,-1.007910948E0,2.093479199E1
2.338348833E0,1.867183656E1,-6.058446318E-1,-5.050819399E-1,1.868848940E1
2.348348833E0,9.430088857E0,1.240680928E0,-1.946709853E-2,9.511374453E0
2.358348833E0,2.180707383E0,2.166965842E0,1.276629610E0,3.328814926E0
2.368348833E0,-1.273726467E0,2.363351011E0,3.373884947E0,4.311717378E0
2.378348833E0,-3.520131412E0,2.203839553E0,3.831363498E0,5.650449556E0
2.388348833E0,-4.919120441E0,1.762354306E0,3.510579400E0,6.295062060E0
2.398348958E0,-5.261580167E0,3.557095170E-1,2.791591730E0,5.966886919E0
2.408348958E0,-4.831447290E0,-1.720685293E0,1.853387268E0,5.453318728E0
2.418348958E0,-4.156921847E0,-4.213213577E0,3.899648452E-1,5.931546213E0
2.428348958E0,-3.387669173E0,-7.626936189E0,-3.135027941E0,8.914867259E0
2.438348958E0,-2.328453659E0,-1.095596071E1,-5.344224129E0,1.241029827E1
2.448348958E0,-3.878171629E-1,-1.215020656E1,-3.282719838E0,1.259182954E1
2.458349958E0,1.090303406E0,-1.076933747E1,-4.595385253E-2,1.082448626E1
2.468349958E0,2.339412510E-1,-5.761438753E0,2.610687064E0,6.329659703E0
2.478349958E0,-2.370270022E0,-2.064768791E-2,2.976450284E0,3.804978659E0
2.488349958E0,-4.608781224E0,3.223633139E0,-3.675501287E-1,5.636290277E0
2.498349958E0,-6.468865308E0,4.668813418E0,-3.346983662E0,8.651377737E0
2.508349958E0,-7.624888494E0,5.037786759E0,-2.586131097E0,9.497699407E0
2.518350958E0,-8.067174225E0,5.337864697E0,-1.100220283E0,9.735634759E0
2.528350958E0,-8.245129555E0,5.541985733E0,-2.535002239E-1,9.937808089E0
2.538350958E0,-7.888041850E0,4.632145529E0,2.756903343E-1,9.151720143E0
2.548350958E0,-6.503682554E0,2.117395486E0,7.546655526E-1,6.881189614E0
2.558350958E0,-4.755982540E0,-1.176135854E0,1.309982713E0,5.071362753E0
2.568350958E0,-3.148146170E0,-4.289077692E0,2.014220781E0,5.688945167E0
2.578350958E0,-1.779548628E0,-6.598313307E0,2.688341011E0,7.343821159E0
2.588351958E0,-9.280536962E-1,-7.543052033E0,2.932397361E0,8.146034122E0
2.598351958E0,-1.026594775E0,-6.318023517E0,2.702297730E0,6.947929980E0
2.608351958E0,-1.604531231E0,-3.631329666E0,1.928464347E0,4.413621002E0
2.618351958E0,-1.764435038E0,-7.748315030E-1,-1.476883882E0,2.427916980E0
2.628351958E0,-1.859932933E0,1.112843837E0,-2.556461740E0,3.351606861E0
2.638351958E0,-1.993981814E0,1.800535455E0,3.796795928E-1,2.713309417E0
2.648352958E0,-1.835676344E0,2.090646229E0,1.048123931E0,2.973057865E0
2.658352958E0,-1.373071539E0,1.794274841E0,7.562788725E-1,2.382583763E0
2.668352958E0,-6.162114528E-1,1.233958969E0,4.143945122E-1,1.440171554E0
2.678352958E0,1.024838564E-1,8.527719641E-1,1.582975763E-1,8.733733945E-1
2.688352958E0,7.033963618E-1,5.806752920E-1,9.313269675E-2,9.168554606E-1
2.698352958E0,1.018519770E0,3.879270905E-1,1.218208909E-1,1.096681485E0
2.708353958E0,1.084429293E0,4.258936465E-1,2.323320973E-1,1.188002732E0
2.718353958E0,1.035587500E0,5.882895362E-1,6.120146137E-1,1.339062335E0
2.728353958E0,8.465619287E-1,7.845150769E-1,1.233055574E0,1.688951466E0
2.738353958E0,5.580550459E-1,1.015024012E0,1.531238430E0,1.919997476E0
2.748353958E0,2.111224920E-1,1.311933929E0,1.368490537E0,1.907487796E0
2.758353958E0,-5.967405170E-2,1.503791599E0,1.065715864E0,1.844098823E0
2.768353958E0,-1.502848443E-1,1.348993582E0,8.249837295E-1,1.588385146E0
2.778354958E0,-7.550743461E-2,9.391154587E-1,6.721233328E-1,1.157319745E0
2.788354958E0,1.038471347E-1,4.565716481E-1,5.830446569E-1,7.477853764E-1
2.798354958E0,3.027623945E-1,1.152439427E-1,4.820345181E-1,5.807783661E-1
2.808354958E0,4.932228729E-1,-8.018403769E-2,3.571877662E-1,6.142323523E-1
2.818354958E0,6.180658972E-1,-8.506353915E-2,2.460607018E-1,6.706617091E-1
2.828354958E0,6.225691304E-1,8.686682045E-2,1.538330810E-1,6.471497380E-1
2.838355958E0,4.544698665E-1,3.756204557E-1,6.145131290E-2,5.927983216E-1
2.848355958E0,2.137107620E-1,6.128998822E-1,-6.875514306E-2,6.527218589E-1
2.858355958E0,-3.580834866E-2,7.226942199E-1,-2.198202252E-1,7.562341600E-1
2.868355958E0,-1.989447883E-1,6.624117655E-1,-3.313476046E-1,7.669156478E-1
2.878355958E0,-2.802734184E-1,4.519640422E-1,-3.661865580E-1,6.456913193E-1
2.888355958E0,-2.399021950E-1,2.260077488E-1,-3.305202967E-1,4.667721417E-1
2.898356958E0,-7.700783014E-2,3.431847811E-2,-3.079001968E-1,3.192342322E-1
2.908356958E0,2.883452073E-1,-1.447799832E-1,-3.677360702E-1,4.892177627E-1
2.918356958E0,9.757988432E-1,-2.045695174E-1,-6.331077133E-1,1.181040832E0
2.928356958E0,1.791381200E0,3.946812093E-2,-1.060999573E0,2.082384314E0
2.938356958E0,2.530720250E0,4.985289288E-1,-1.560287397E0,3.014560140E0
2.948356958E0,3.332421171E0,7.908686614E-1,-1.961627415E0,3.946959110E0
2.958357958E0,4.140667757E0,8.339012450E-1,-1.929623265E0,4.643701833E0
2.968357958E0,4.730484002E0,8.366868585E-1,-1.260535734E0,4.966535425E0
2.978357958E0,4.998600474E0,9.582066178E-1,-8.867653370E-2,5.090386051E0
2.988357958E0,5.035164868E0,1.106135911E0,8.545087333E-1,5.225572416E0
2.998357958E0,5.078773402E0,1.111553357E0,1.244118506E0,5.345775995E0
3.008357958E0,5.231797374E0,9.300627995E-1,1.235752895E0,5.455621486E0
3.018358958E0,5.452203491E0,5.369071287E-1,9.598238846E-1,5.562018883E0
3.028358958E0,5.654200818E0,-2.155342162E-2,5.061618110E-1,5.676852228E0
3.038358958E0,5.752294877E0,-6.335925937E-1,1.101626758E-1,5.788131974E0
3.048358958E0,5.820547087E0,-1.242922166E0,1.408002220E-2,5.951791507E0
3.058358958E0,5.893106940E0,-1.608585398E0,2.123591415E-1,6.112393377E0
3.068358958E0,5.881752816E0,-1.618540283E0,4.359485185E-1,6.115941461E0
3.078359958E0,5.737314895E0,-1.372659602E0,6.418441844E-1,5.934049254E0
3.088359958E0,5.499869408E0,-1.090468297E0,8.576508808E-1,5.672146829E0
3.098359958E0,5.247239871E0,-1.149445068E0,8.400414062E-1,5.436949493E0
3.108359958E0,4.900035129E0,-1.313243705E0,5.986572343E-1,5.108164424E0
3.118359958E0,4.260863999E0,-1.035372908E0,2.834905565E-2,4.384947291E0
3.128359958E0,3.389364865E0,-4.276255918E-1,-1.578372835E0,3.763232473E0
3.138360958E0,2.305525557E0,2.633059680E-1,-5.078582783E0,5.583617215E0
3.148360958E0,1.387003699E0,4.981704944E-1,-7.705159070E0,7.844834568E0
3.158360958E0,1.037703169E0,-7.996535182E-2,-6.657946136E0,6.738803238E0
3.168360958E0,9.032699803E-1,-6.962653899E-1,-3.726100752E0,3.896730548E0
3.178360958E0,4.700167358E-1,-8.628619194E-1,-7.379533332E-2,9.853386094E-1
3.188360958E0,-3.222149116E-1,-9.357503861E-1,1.348662629E0,1.672824594E0
3.198361958E0,-9.652291238E-1,-1.410098155E0,1.049217433E0,2.005218514E0
3.208361958E0,-1.338360420E0,-2.215313544E0,1.134951794E0,2.826117175E0
3.218361958E0,-1.704565689E0,-2.954836051E0,1.313423799E0,3.655363505E0
3.228361958E0,-2.082722374E0,-3.567741780E0,1.194252867E0,4.300320198E0
3.238361958E0,-2.457245600E0,-4.020820886E0,7.984324734E-1,4.779388136E0
3.248361958E0,-2.836513549E0,-4.179864568E0,4.460256100E-2,5.051639962E0
3.258362958E0,-3.069529771E0,-3.994862757E0,-1.320940834E0,5.208245976E0
3.268362958E0,-2.643666822E0,-3.457235836E0,-2.128712626E0,4.844880942E0
3.278362958E0,-2.063669515E0,-2.750375876E0,-1.527812107E0,3.762646564E0
3.288362958E0,-1.818428519E0,-2.151373072E0,-1.751087599E-1,2.822366286E0
3.298362958E0,-1.790991629E0,-1.643319613E0,1.053643995E0,2.649210455E0
3.308362958E0,-1.882804610E0,-1.211817902E0,1.907700884E0,2.941560554E0
3.318363958E0,-2.025698281E0,-7.488002837E-1,2.326953263E0,3.174723119E0
3.328363958E0,-2.055360036E0,-3.358535421E-1,2.223904274E0,3.046810250E0
3.338363958E0,-2.006608876E0,-9.256259322E-2,1.528203725E0,2.523975760E0
3.348363958E0,-1.926583883E0,1.092844605E-3,4.643906911E-1,1.981763196E0
3.358363958E0,-1.983969626E0,-4.056798220E-2,-4.757879376E-1,2.040626228E0
3.368363958E0,-2.174297665E0,-1.221413183E-1,-1.045895995E0,2.415861600E0
3.378364958E0,-2.580834104E0,-2.663757563E-1,-1.051778440E0,2.799624726E0
3.388364958E0,-3.147616997E0,-6.037524980E-1,-6.191148877E-1,3.264247705E0
3.398365583E0,-3.623599062E0,-9.654179889E-1,-1.254895802E-1,3.752099371E0
3.408365583E0,-4.005304715E0,-1.152427733E0,3.565257883E-1,4.183021178E0
3.418365583E0,-4.453329488E0,-9.950534320E-1,8.412447631E-1,4.640039613E0
3.428365583E0,-4.691319936E0,-5.722289890E-1,1.088643966E0,4.849853033E0
3.438366583E0,-4.665752985E0,6.516955733E-2,8.992234877E-1,4.752062802E0
3.448366583E0,-4.663192490E0,8.823080045E-1,5.706740682E-1,4.780115114E0
3.458366583E0,-4.680291502E0,1.708323694E0,3.015327251E-1,4.991434701E0
3.468366583E0,-4.622643219E0,2.390844035E0,1.708882396E-1,5.207126685E0
3.478366583E0,-4.692748411E0,2.789338213E0,2.396142197E-1,5.464403928E0
3.488367583E0,-4.988539170E0,2.809821010E0,4.066561608E-1,5.739859440E0
3.498367583E0,-5.441576176E0,2.395602499E0,7.618805051E-1,5.994174215E0
3.508367583E0,-5.875855315E0,1.862598386E0,1.121846868E0,6.265260475E0
3.518367583E0,-6.246424946E0,1.625673886E0,1.323035452E0,6.588707232E0
3.528367583E0,-6.546254961E0,1.746006076E0,1.382916788E0,6.914799352E0
3.538367583E0,-6.660990781E0,2.053555586E0,1.228470773E0,7.077784199E0
3.548368583E0,-6.455822509E0,2.262272533E0,1.044112741E0,6.919948894E0
3.558368583E0,-5.743290750E0,2.077822700E0,8.002768314E-1,6.159803472E0
3.568368583E0,-4.630770264E0,1.581263114E0,4.463916457E-1,4.913623080E0
3.578368583E0,-2.889592234E0,8.840943289E-1,-4.940126125E-1,3.061929869E0
3.588368583E0,-3.694609988E-1,9.879806399E-2,-2.212661247E0,2.245469279E0
3.598368583E0,2.595047516E0,-5.327608681E-1,-3.931263177E0,4.740562828E0
3.608369583E0,5.918086830E0,-9.352481103E-1,-4.155489864E0,7.291538710E0
3.618369583E0,9.474251708E0,-1.423221645E0,-1.871101992E0,9.761558684E0
3.628369583E0,1.275075069E1,-1.959263971E0,2.364083083E0,1.311522960E1
3.638369583E0,1.643430827E1,-2.532140831E0,4.541568650E0,1.723728724E1
3.648369583E0,2.080461315E1,-2.812266315E0,1.250408356E0,2.103103162E1
3.658369583E0,2.322900441E1,-2.132070243E0,-3.300148049E0,2.355893348E1
3.668370583E0,2.085218142E1,9.255206823E-2,-2.506275673E0,2.100246303E1
3.678370583E0,1.128370183E1,1.660244379E0,7.174194467E-1,1.142773070E1
3.688370583E0,3.067461610E0,1.363077185E0,2.464264598E0,4.164120574E0
3.698370583E0,-8.843685633E-1,8.622105396E-1,3.522162150E0,3.732444370E0
3.708370583E0,-3.312029591E0,1.858666134E-1,3.230345743E0,4.630250536E0
3.718371583E0,-4.434280429E0,-1.049698001E0,2.181920096E0,5.052275143E0
3.728371583E0,-4.584985980E0,-3.418840680E0,5.088785005E-1,5.741909557E0
3.738371583E0,-4.407511291E0,-6.325971637E0,-1.513418455E0,7.857131051E0
3.748371583E0,-3.743043060E0,-8.860457202E0,-3.010747712E0,1.007882309E1
3.758371583E0,-2.754816837E0,-1.040805556E1,-3.565509313E0,1.134149430E1
3.768371583E0,-2.396100681E0,-8.719242851E0,-2.225366662E0,9.312290327E0
3.778372583E0,-3.483276996E0,-3.151846873E0,5.826697773E-1,4.733588640E0
3.788372583E0,-4.491861470E0,1.027634118E0,2.262333344E0,5.133322852E0
3.798372583E0,-5.348435878E0,3.409640086E0,1.689058288E0,6.563865459E0
3.808372583E0,-6.149771640E0,4.763135439E0,4.860568178E-1,7.793805339E0
3.818372583E0,-6.856589500E0,5.357945205E0,-4.002641308E-1,8.710947582E0
3.828373583E0,-7.278428687E0,5.257294743E0,-3.044610107E-1,8.983727995E0
3.838373583E0,-7.425496101E0,4.619833632E0,3.828768504E-1,8.753710631E0
3.848373583E0,-6.754357951E0,2.916857216E0,6.863952899E-1,7.389218216E0
3.858373583E0,-5.668476795E0,2.609284902E-1,9.628025293E-1,5.755580037E0
3.868373583E0,-4.190502407E0,-2.919032965E0,1.362382536E0,5.285560523E0
3.878373583E0,-2.673204909E0,-5.692976044E0,1.891721613E0,6.567694526E0
3.888374583E0,-1.473614412E0,-7.373724854E0,2.405373781E0,7.894883196E0
3.898374583E0,-1.086172348E0,-7.031668001E0,2.700520177E0,7.610317633E0
3.908374583E0,-1.435505768E0,-4.501590652E0,2.184402823E0,5.205440510E0
3.918374583E0,-1.770552687E0,-1.520757880E0,1.428498538E-1,2.338368540E0
3.928374583E0,-1.991824776E0,6.020398486E-1,-2.685298522E-1,2.098076786E0
3.938375583E0,-2.230728851E0,1.269021213E0,9.583773565E-1,2.739535217E0
3.948375583E0,-2.347675503E0,1.165200976E0,9.274140108E-1,2.780174514E0
3.958375583E0,-2.329140999E0,1.124083355E0,4.594367838E-1,2.626698182E0
3.968375583E0,-2.204821593E0,1.156043651E0,2.307311296E-2,2.489619961E0
3.978375583E0,-1.953554457E0,1.107718753E0,-5.501709527E-1,2.312164339E0
3.988375583E0,-1.646054941E0,8.089599466E-1,-1.393355237E0,2.303334948E0
3.998376583E0,-1.255044029E0,2.728708434E-1,-2.118155624E0,2.477130852E0
4.008376583E0,-6.075289223E-1,-3.786504829E-1,-1.610640110E0,1.762563231E0
4.018376583E0,-2.194810867E-2,-7.457416052E-1,-4.083462985E-1,8.505051209E-1
4.028376583E0,1.814206830E-1,-5.192906374E-1,3.904583502E-1,6.745620457E-1
4.038376583E0,8.554973513E-2,2.151260805E-1,8.224027685E-1,8.543677787E-1
4.048377583E0,-1.386886463E-1,1.016223861E0,1.029812717E0,1.453430325E0
4.058377583E0,-2.180198675E-1,1.519678484E0,1.057287760E0,1.864084967E0
4.068377583E0,-1.437704614E-1,1.697118675E0,9.928250581E-1,1.971441944E0
4.078377583E0,1.919991732E-2,1.498948935E0,9.435411432E-1,1.771295130E0
4.088377583E0,2.660006574E-1,1.036914234E0,9.244874062E-1,1.414434319E0
4.098377583E0,5.183407572E-1,6.039320076E-1,8.345537943E-1,1.153209021E0
4.108378583E0,7.319418839E-1,3.195444882E-1,6.753065570E-1,1.045890313E0
4.118378583E0,8.425109777E-1,2.715973198E-1,5.053051939E-1,1.019275817E0
4.128378583E0,8.236244711E-1,3.701772827E-1,5.141813403E-1,1.039120273E0
4.138378583E0,8.624926677E-1,4.072082841E-1,5.133492815E-1,1.083161887E0
4.148378583E0,9.494700006E-1,4.143155748E-1,3.435041121E-1,1.091396240E0
4.158379583E0,1.091196568E0,3.022449160E-1,6.364109516E-3,1.132299625E0
4.168379583E0,1.231175402E0,1.355589241E-1,-4.343645809E-1,1.312570639E0
4.178379583E0,1.276085673E0,6.841885507E-2,-7.664186022E-1,1.490125249E0
4.188379583E0,1.249577174E0,1.949894392E-1,-8.084619100E-1,1.501024536E0
4.198379583E0,1.245171005E0,4.523066890E-1,-6.381288636E-1,1.470455922E0
4.208379583E0,1.291445870E0,7.415000349E-1,-5.593202372E-1,1.590752609E0
4.218380583E0,1.337058976E0,9.693952650E-1,-7.709649586E-1,1.822591795E0
4.228380583E0,1.513429857E0,1.050747576E0,-1.215291148E0,2.207141359E0
4.238380583E0,1.871074510E0,9.590018392E-1,-1.771788204E0,2.749515919E0
4.248380583E0,2.280896354E0,8.352706629E-1,-2.130340783E0,3.230869404E0
4.258380583E0,2.628104165E0,7.394739747E-1,-2.208141350E0,3.511358922E0
4.268381583E0,2.966341032E0,5.388478196E-1,-2.043047408E0,3.641919659E0
4.278381583E0,3.261587416E0,2.478371590E-1,-1.450321882E0,3.578101353E0
4.288381583E0,3.430088968E0,-2.282285213E-2,-4.802645659E-1,3.463623141E0
4.298381583E0,3.561325046E0,-1.666854072E-1,2.043689579E-1,3.571076417E0
4.308381583E0,3.701515549E0,-1.717134279E-1,5.109922689E-1,3.740563589E0
4.318382583E0,3.888019509E0,-1.902146029E-1,6.394479223E-1,3.944841055E0
4.328382583E0,4.125466751E0,-3.268704647E-1,7.348031458E-1,4.203124537E0
4.338382583E0,4.353337423E0,-5.336648476E-1,8.735406163E-1,4.472070895E0
4.348382583E0,4.593037596E0,-6.884622806E-1,1.106400790E0,4.774316431E0
4.358382583E0,4.844609957E0,-7.993623269E-1,1.365594996E0,5.096476769E0
4.368383583E0,5.092274038E0,-8.432228762E-1,1.509803706E0,5.377898003E0
4.378383583E0,5.343238288E0,-8.134020764E-1,1.538129373E0,5.619400352E0
4.388383583E0,5.449258833E0,-5.456153870E-1,1.481813670E0,5.673437206E0
4.398386708E0,5.276511033E0,1.278721744E-1,1.333610142E0,5.443935707E0
4.408386708E0,4.939871625E0,9.372309011E-1,1.120377975E0,5.151308595E0
4.418386708E0,4.677247734E0,1.491012509E0,8.974283195E-1,4.990505211E0
4.428387708E0,4.677903500E0,1.542289082E0,4.258082771E-1,4.943960907E0
4.438387708E0,4.862514131E0,1.202665840E0,-6.124291813E-1,5.046337117E0
4.448387708E0,4.903881720E0,6.916262090E-1,-1.921399741E0,5.312078661E0
4.458387708E0,4.490334762E0,2.298528779E-1,-4.706297579E0,6.508853626E0
4.468387708E0,3.115690907E0,2.990733862E-2,-1.232566864E1,1.271339969E1
4.478388708E0,1.410341691E0,-9.119066101E-1,-1.134010173E1,1.146379277E1
4.488388708E0,1.113840495E0,-2.183722792E0,-1.453151203E0,2.849725303E0
4.498388708E0,5.292288575E-1,-2.761183870E0,4.457893825E-1,2.846567709E0
4.508388708E0,-1.555166405E-1,-3.404354203E0,8.866460538E-1,3.521356867E0
4.518388708E0,-4.944580972E-1,-3.962942807E0,1.918306710E0,4.430497166E0
4.528389708E0,-9.269535425E-1,-4.405769405E0,2.695557060E0,5.247482710E0
4.538389708E0,-1.552677246E0,-4.888573417E0,2.909137429E0,5.896781942E0
4.548389708E0,-1.973451655E0,-5.421988004E0,2.605278389E0,6.330872044E0
4.558389708E0,-2.339908354E0,-5.556733580E0,2.142708668E0,6.398723281E0
4.568389708E0,-2.946556394E0,-4.997373143E0,1.796082361E0,6.073042464E0
4.578390708E0,-3.718216367E0,-3.862896363E0,1.607274160E0,5.597359331E0
4.588390708E0,-4.189928795E0,-2.370611499E0,1.611627851E0,5.076676720E0
4.598390708E0,-4.117266031E0,-1.046422391E0,1.746039405E0,4.592987371E0
4.608390708E0,-3.816821473E0,-3.059263229E-2,1.550249189E0,4.119749339E0
4.618390708E0,-3.182802032E0,4.423868877E-1,1.403300328E0,3.506449307E0
4.628391708E0,-2.420795812E0,3.715619034E-1,1.645135320E0,2.950386556E0
4.638391708E0,-1.789022872E0,2.023756421E-1,1.973556905E0,2.671420145E0
4.648391708E0,-1.267297454E0,2.385009098E-1,2.121771981E0,2.482909958E0
4.658391708E0,-7.654765427E-1,4.374103224E-1,2.063394696E0,2.243853782E0
4.668391708E0,-1.840440363E-1,7.779299426E-1,1.658328831E0,1.840951307E0
4.678392708E0,4.212673295E-1,1.234630814E0,5.444973993E-1,1.413597124E0
4.688392708E0,7.334308773E-1,1.647520838E0,-1.312747715E0,2.230594613E0
4.698392708E0,1.760795438E-1,1.489313893E0,-1.123213874E0,1.873678010E0
4.708392708E0,-1.456749580E0,8.277283394E-1,3.203981817E-1,1.705845403E0
4.718392708E0,-2.934534518E0,2.632416487E-1,8.458207941E-1,3.065322466E0
4.728392708E0,-3.882243045E0,-1.674911535E-1,1.131113462E0,4.047132567E0
4.738393708E0,-4.363168931E0,-4.911789787E-1,1.511832690E0,4.643720275E0
4.748393708E0,-4.781681052E0,-5.696772641E-1,1.757559589E0,5.126209280E0
4.758393708E0,-4.935110822E0,-3.853589934E-1,1.702727763E0,5.234797246E0
4.768393708E0,-4.953479850E0,-1.571322262E-2,1.321146948E0,5.126659613E0
4.778393708E0,-4.950107760E0,2.550953078E-1,7.565256250E-1,5.014077331E0
4.788394708E0,-4.849555532E0,3.725851661E-1,3.454814212E-1,4.876101514E0
4.798394708E0,-4.733267861E0,3.505996352E-1,1.280717106E-1,4.747962417E0
4.808394708E0,-4.797767912E0,3.040891278E-1,3.989906073E-2,4.807560615E0
4.818394708E0,-5.069558190E0,3.216974330E-1,2.478108466E-1,5.085795876E0
4.828394708E0,-5.403138335E0,3.544283921E-1,5.610204613E-1,5.443736521E0
4.838395708E0,-5.697283688E0,4.170433009E-1,7.571664798E-1,5.762487970E0
4.848395708E0,-5.838999145E0,5.908658195E-1,8.930920243E-1,5.936383309E0
4.858395708E0,-5.780225272E0,9.831362218E-1,9.979128666E-1,5.947553372E0
4.868395708E0,-5.557311870E0,1.540915571E0,9.977466595E-1,5.852660456E0
4.878395708E0,-5.170613279E0,2.048940963E0,7.804721658E-1,5.616274348E0
4.888396708E0,-4.474432089E0,2.203675246E0,2.834486027E-1,4.995705178E0
4.898396708E0,-3.197794878E0,1.990084060E0,-2.918378954E-1,3.777763360E0
4.908396708E0,-1.425450604E0,1.738204136E0,-8.877161673E-1,2.416878780E0
4.918396708E0,6.844627851E-1,1.380070363E0,-2.249639039E0,2.726528804E0
4.928396708E0,3.670262182E0,4.629515451E-1,-5.145667888E0,6.337432179E0
4.938397708E0,8.131402965E0,-7.186719203E-1,-7.718349220E0,1.123428316E1
4.948397708E0,1.279014806E1,-1.676558111E0,-4.639493140E0,1.370852403E1
4.958397708E0,1.598933516E1,-1.996339996E0,1.947036273E0,1.623068583E1
4.968397708E0,1.865174085E1,-1.509668051E0,4.713356338E0,1.929720867E1
4.978397708E0,2.044289035E1,-5.122032273E-1,2.219815900E0,2.056943608E1
4.988398708E0,1.893098048E1,8.633495772E-1,1.372742633E0,1.900031096E1
4.998398708E0,1.053272404E1,1.695850414E0,3.567596769E-1,1.067433660E1
5.008398708E0,2.758567241E0,1.745397965E0,-1.767847180E-1,3.269152813E0
5.018398708E0,-7.574231726E-1,1.966767118E0,1.603907626E0,2.648467940E0
5.028398708E0,-2.921625035E0,2.098214280E0,2.622461017E0,4.451482652E0
5.038399708E0,-4.149417531E0,1.959110774E0,2.587693473E0,5.268010856E0
5.048399708E0,-4.380322908E0,8.247731566E-1,2.103187337E0,4.928577534E0
5.058399708E0,-3.828360953E0,-1.604096491E0,1.260063279E0,4.337883424E0
5.068399708E0,-2.668092104E0,-4.584073815E0,1.863753577E-1,5.307276513E0
5.078399708E0,-9.614319420E-1,-7.685391389E0,-1.016965288E0,7.811773843E0
5.088400708E0,1.321609901E0,-1.054855011E1,-3.042310982E0,1.105776733E1
5.098400708E0,3.433479769E0,-1.173184881E1,-3.746263121E0,1.278512992E1
5.108400708E0,3.098723164E0,-8.277394491E0,-7.953207314E-2,8.838759538E0
5.118400708E0,3.058918244E-1,-2.284505986E0,2.882650419E0,3.690827935E0
5.128400708E0,-2.361832489E0,1.826063229E0,9.891506678E-1,3.145024430E0
5.138401708E0,-4.631412288E0,3.554095548E0,-2.767564936E0,6.460726788E0
5.148401708E0,-6.139179994E0,3.773756729E0,-3.057114962E0,7.827944988E0
5.158401708E0,-6.819804082E0,3.621223338E0,-8.559095800E-1,7.768884565E0
5.168401708E0,-7.308188092E0,3.301239724E0,3.286006558E-1,8.025943888E0
5.178401708E0,-7.381966504E0,2.482413771E0,6.969565308E-1,7.819306619E0
5.188402708E0,-7.250331062E0,1.089336861E0,1.084919289E0,7.411545397E0
5.198402708E0,-6.714395156E0,-9.431874597E-1,1.619352461E0,6.971011927E0
5.208402708E0,-5.714367498E0,-3.266693205E0,2.194890389E0,6.938503024E0
5.218402708E0,-4.575543897E0,-5.110488700E0,2.431018499E0,7.277537196E0
5.228402708E0,-3.580518824E0,-5.824163589E0,2.536075423E0,7.291959621E0
5.238403708E0,-3.296875655E0,-4.632438474E0,2.561521336E0,6.236206127E0
5.248403708E0,-3.358464085E0,-2.331496550E0,2.269161723E0,4.675922593E0
5.258403708E0,-3.158650400E0,-6.043226016E-1,1.741298482E0,3.657102482E0
5.268403708E0,-2.721643536E0,2.860650855E-1,1.470945450E0,3.106904776E0
5.278403708E0,-2.426884518E0,7.130077225E-1,1.452656529E0,2.916909232E0
5.288404708E0,-2.192574892E0,9.141051632E-1,1.362559122E0,2.738528851E0
5.298404708E0,-1.861298550E0,7.827749455E-1,1.177603505E0,2.337502711E0
5.308404708E0,-1.492807020E0,5.544060910E-1,9.473097467E-1,1.852898990E0
5.318404708E0,-1.142518164E0,4.383189797E-1,6.748411918E-1,1.397455515E0
5.328404708E0,-7.414465329E-1,3.229651093E-1,3.234749866E-1,8.710255392E-1
5.338405708E0,-1.453553492E-1,1.286738276E-1,-2.447528441E-2,1.956634125E-1
5.348405708E0,6.487991551E-1,-1.655703431E-1,-2.609577445E-1,7.186465241E-1
5.358405708E0,1.428879119E0,-4.829753351E-1,-3.510346315E-1,1.548607769E0
5.368405708E0,1.983058338E0,-4.788384300E-1,-1.641792905E-1,2.046646392E0
5.378406708E0,2.033663943E0,1.757053220E-1,7.901748162E-2,2.042768992E0
5.388406708E0,1.601602946E0,1.174943022E0,9.712802611E-2,1.988732499E0
5.398402583E0,1.028884837E0,1.948903874E0,6.552437369E-2,2.204795628E0
5.408402583E0,5.762667838E-1,2.382182554E0,2.140326512E-1,2.460220946E0
5.418402583E0,3.254314649E-1,2.352363508E0,4.877168057E-1,2.424332361E0
5.428403583E0,3.220889041E-1,1.818993360E0,6.283517343E-1,1.951231408E0
5.438403583E0,4.159571806E-1,1.110190371E0,6.832623518E-1,1.368353199E0
5.448403583E0,5.634473482E-1,4.842816031E-1,7.379928750E-1,1.047203451E0
5.458403583E0,6.134392878E-1,1.011439669E-1,7.030821470E-1,9.385426828E-1
5.468403583E0,5.543020105E-1,1.570796013E-2,5.515491414E-1,7.821150262E-1
5.478404583E0,3.455982193E-1,2.350305873E-1,2.694308534E-1,4.972629997E-1
5.488404583E0,9.818849176E-2,5.255617762E-1,-7.781642698E-2,5.402884015E-1
5.498404583E0,-1.615404421E-1,7.733562505E-1,-3.744263812E-1,8.742827458E-1
5.508404583E0,-3.312520757E-1,8.478614724E-1,-5.231282381E-1,1.049885788E0
5.518404583E0,-3.938716623E-1,7.358557177E-1,-5.013379312E-1,9.736314728E-1
5.528405583E0,-3.483145434E-1,5.326076710E-1,-3.752053034E-1,7.387644903E-1
5.538405583E0,-1.662100285E-1,3.102497542E-1,-3.148573601E-1,4.722455302E-1
5.548405583E0,1.730438156E-1,8.971909225E-2,-4.234630320E-1,4.661701590E-1
5.558405583E0,6.857722691E-1,-1.121712309E-1,-6.863018806E-1,9.766658904E-1
5.568405583E0,1.239783673E0,-1.890743959E-1,-9.831929398E-1,1.593574924E0
5.578406583E0,1.782550443E0,-1.154573661E-1,-1.265441694E0,2.189100081E0
5.588406583E0,2.294449322E0,1.507605153E-1,-1.486520094E0,2.738059242E0
5.598406583E0,2.773253108E0,4.975068355E-1,-1.568745541E0,3.224811378E0
5.608406583E0,3.225511557E0,7.009963721E-1,-1.459551566E0,3.609101203E0
5.618406583E0,3.587682540E0,7.056308752E-1,-1.140243963E0,3.830083189E0
5.628407583E0,3.745136363E0,5.507808173E-1,-6.928972475E-1,3.848312940E0
5.638407583E0,3.677647800E0,4.062060714E-1,-2.745666821E-1,3.710186461E0
5.648407583E0,3.536428479E0,3.267289621E-1,-1.445431709E-3,3.551489869E0
5.658407583E0,3.474431328E0,9.020441115E-2,1.364470430E-1,3.478279415E0
5.668408583E0,3.590336299E0,-4.400895166E-1,1.804778194E-1,3.621707576E0
5.678408583E0,3.884807634E0,-1.022161124E0,2.058852140E-1,4.022304369E0
5.688408583E0,4.239958157E0,-1.473917005E0,3.351670059E-1,4.501334628E0
5.698408583E0,4.623261854E0,-1.719502986E0,6.044015024E-1,4.969561537E0
5.708408583E0,5.103640441E0,-1.806333554E0,9.372689080E-1,5.494402575E0
5.718409583E0,5.679129837E0,-1.783107828E0,1.222915918E0,6.076801180E0
5.728409583E0,6.124328066E0,-1.457037263E0,1.434182836E0,6.456565051E0
5.738409583E0,6.254523924E0,-6.507489091E-1,1.509781487E0,6.466991866E0
5.748409583E0,6.292510360E0,2.079164636E-1,1.529708798E0,6.479114515E0
5.758409583E0,6.469940026E0,7.326169449E-1,1.503105136E0,6.682527709E0
5.768410583E0,6.660450498E0,9.503579003E-1,1.313385208E0,6.854907854E0
5.778410583E0,6.534582750E0,1.161862800E0,3.611837168E-1,6.646890292E0
5.788410583E0,5.906563722E0,1.525763682E0,-1.600674115E0,6.306949139E0
5.798410583E0,4.894103421E0,1.778216048E0,-3.351895323E0,6.192697544E0
5.808411583E0,3.626675867E0,1.760403090E0,-6.124718660E0,7.332392212E0
5.818411583E0,2.152523219E0,1.086063589E0,-1.049521415E1,1.076858442E1
5.828411583E0,1.267418784E0,-5.818622768E-1,-6.778985839E0,6.920951025E0
5.838411583E0,1.100514691E0,-2.168246382E0,5.416825497E-1,2.491153336E0
5.848411583E0,2.699317405E-1,-3.148077173E0,1.716204572E0,3.595637796E0
5.858412583E0,-5.898782247E-1,-4.003193870E0,1.791413798E0,4.425232297E0
5.868412583E0,-1.525098268E0,-4.363685825E0,2.791820941E0,5.400179893E0
5.878412583E0,-2.386904181E0,-4.612673716E0,3.257281526E0,6.130575285E0
5.888412583E0,-2.657413918E0,-5.061475584E0,3.096382524E0,6.501382050E0
5.898412583E0,-2.726531808E0,-5.265472659E0,2.730165560E0,6.527861978E0
5.908413583E0,-2.853710795E0,-4.931372112E0,2.374027004E0,6.172365869E0
5.918413583E0,-3.176224792E0,-4.174823098E0,2.034024424E0,5.626260497E0
5.928413583E0,-3.431565975E0,-3.170442773E0,1.783540230E0,5.000836747E0
5.938413583E0,-3.301406370E0,-2.028866887E0,1.674784065E0,4.221431810E0
5.948413583E0,-3.080159424E0,-1.041688485E0,1.324860953E0,3.511090076E0
5.958414583E0,-2.769679289E0,-3.894064361E-1,1.245988884E0,3.061902846E0
5.968414583E0,-2.429216972E0,-7.598690629E-2,1.737329392E0,2.987504397E0
5.978414583E0,-2.069287519E0,-2.904487431E-2,2.340083771E0,3.123905648E0
5.988414583E0,-1.633064767E0,-7.599626184E-3,2.871561175E0,3.303456049E0
5.998415583E0,-1.139276175E0,1.409120500E-1,2.901934537E0,3.120741973E0
6.008415583E0,-5.782808572E-1,5.164067906E-1,1.742803410E0,1.907471742E0
6.018415583E0,-1.077033734E-1,8.925692832E-1,-3.081131816E-2,8.995717200E-1
6.028415583E0,-2.748214746E-1,9.028919578E-1,-6.710194516E-1,1.158018927E0
6.038415583E0,-1.429101605E0,4.884407276E-1,-6.502549656E-1,1.644304492E0
6.048416583E0,-3.010889214E0,-3.055521011E-2,-2.646297777E-1,3.022650559E0
6.058416583E0,-4.163902254E0,-4.690466827E-1,4.393806879E-1,4.213210433E0
6.068416583E0,-4.971541314E0,-7.570892966E-1,9.990821636E-1,5.127140764E0
6.078416583E0,-5.419832720E0,-7.577816069E-1,1.211503395E0,5.605047739E0
6.088417583E0,-5.545552534E0,-4.410016823E-1,1.117552673E0,5.674201210E0
6.098417583E0,-5.466339719E0,9.944418132E-2,8.689324987E-1,5.535865132E0
6.108417583E0,-5.144492013E0,7.933303392E-1,6.389215998E-1,5.244367637E0
6.118417583E0,-4.728983021E0,1.356274534E0,4.715545535E-1,4.942178136E0
6.128417583E0,-4.483546729E0,1.619322640E0,3.456324986E-1,4.779524967E0
6.138418583E0,-4.655903935E0,1.575763223E0,3.777477459E-1,4.929823988E0
6.148418583E0,-5.099661410E0,1.360823084E0,5.402911317E-1,5.305685674E0
6.158418583E0,-5.591563690E0,1.214444472E0,8.024122345E-1,5.777917035E0
6.168418583E0,-5.971736788E0,1.270453196E0,1.107929252E0,6.205094585E0
6.178418583E0,-6.235706415E0,1.507703387E0,1.406971064E0,6.567858979E0
6.188419583E0,-6.352659498E0,1.792658671E0,1.474670126E0,6.763472466E0
6.198419583E0,-6.091767846E0,1.899700724E0,1.207321467E0,6.494314702E0
6.208419583E0,-5.215928031E0,1.720657811E0,7.219954046E-1,5.539661171E0
6.218419583E0,-3.748378059E0,1.495982643E0,1.156556233E-1,4.037533698E0
6.228420583E0,-1.850698718E0,1.207061777E0,-5.212593583E-1,2.270197171E0
6.238420583E0,3.250414556E-1,7.515625083E-1,-1.648166370E0,1.840366957E0
6.248420583E0,3.061474062E0,1.069707173E-1,-4.333114243E0,5.306594501E0
6.258420583E0,6.996012264E0,-7.291700113E-1,-7.598811082E0,1.035460315E1
6.268420583E0,1.142469691E1,-1.494965812E0,-5.844839344E0,1.291978209E1
6.278421583E0,1.502588008E1,-2.175050787E0,8.069508433E-1,1.520391686E1
6.288421583E0,1.746170149E1,-2.612810773E0,6.155268023E0,1.869826525E1
6.298421583E0,1.925500160E1,-2.500773443E0,5.126099011E0,2.008197812E1
6.308421583E0,1.931869532E1,-1.739492862E0,6.397041035E-1,1.940739667E1
6.318421583E0,1.505276324E1,-6.734296739E-2,-2.477669924E0,1.525546016E1
6.328422583E0,6.447839305E0,1.555060571E0,-2.243638042E0,7.001910936E0
6.338422583E0,1.473170900E0,2.418869154E0,1.002367714E0,3.004313819E0
6.348422583E0,-1.216120284E0,2.971082540E0,3.764873639E0,4.947782687E0
6.358422583E0,-3.308953371E0,3.045761424E0,4.084960749E0,6.075585518E0
6.368423583E0,-4.590483533E0,2.188898163E0,3.266823598E0,6.044497551E0
6.378423583E0,-4.593749787E0,-1.551973826E-1,2.488558609E0,5.226810432E0
6.388423583E0,-3.646682115E0,-3.346470276E0,1.902453593E0,5.302497848E0
6.398423750E0,-2.518468872E0,-6.515583977E0,1.149485414E0,7.079324596E0
6.408424750E0,-1.216191035E0,-9.568217633E0,-1.901081836E-1,9.647074708E0
6.418424750E0,3.422392863E-1,-1.206351691E1,-2.147233243E0,1.225790270E1
6.428424750E0,1.763443058E0,-1.123390694E1,-2.374782903E0,1.161679777E1
6.438424750E0,1.298995210E0,-6.091430461E0,-8.854871356E-1,6.291025440E0
6.448424750E0,-1.157020721E0,-4.910357219E-1,3.557135735E-1,1.306271478E0
6.458425750E0,-3.895349579E0,3.102066602E0,-2.193246737E0,5.441221995E0
6.468425750E0,-6.995416433E0,4.893252944E0,-6.702344044E0,1.085362571E1
6.478425750E0,-9.008387665E0,5.147157174E0,-5.461629202E0,1.172491658E1
6.488425750E0,-8.693217478E0,4.750107257E0,-1.287500169E0,9.989654937E0
6.498425750E0,-7.988447313E0,4.179751132E0,2.994335381E-1,9.020824266E0
6.508426750E0,-7.612566656E0,3.129658443E0,4.576709247E-1,8.243506277E0
6.518426750E0,-7.126430901E0,1.256529222E0,8.451197129E-1,7.285541188E0
6.528426750E0,-6.363922990E0,-1.557201821E0,1.516280082E0,6.724841903E0
6.538426750E0,-5.293074440E0,-4.469192984E0,2.057045204E0,7.226462339E0
6.548427750E0,-4.110443207E0,-6.556414499E0,2.463778110E0,8.121115503E0
6.558427750E0,-3.319228098E0,-6.691014479E0,2.911706403E0,8.016544400E0
6.568427750E0,-3.431197016E0,-4.178461820E0,3.008785386E0,6.187523385E0
6.578427750E0,-3.755707252E0,-1.524134063E0,2.428691307E0,4.725131011E0
6.588427750E0,-3.554721785E0,-6.109755635E-3,1.404990027E0,3.822313602E0
6.598428750E0,-3.034605521E0,9.679129958E-1,2.210890710E-1,3.192893141E0
6.608428750E0,-2.654442948E0,1.483532751E0,3.477298218E-1,3.060694826E0
6.618428750E0,-2.246137142E0,1.536548871E0,1.036448795E0,2.912102436E0
6.628428750E0,-1.529194828E0,1.459504788E0,1.558514521E0,2.626320346E0
6.638429750E0,-5.355610996E-1,1.175671000E0,1.969853278E0,2.355705824E0
6.648429750E0,5.261172616E-1,6.979172283E-1,2.039248618E0,2.218653366E0
6.658429750E0,1.600437303E0,2.745723832E-1,1.804900986E0,2.427850309E0
6.668429750E0,2.555267154E0,5.468257606E-2,1.364341353E0,2.897206886E0
6.678429750E0,3.344952047E0,2.166434330E-1,1.543004928E-1,3.355509978E0
6.688430750E0,4.015618034E0,7.404568917E-1,-1.680988692E0,4.415788445E0
6.698430750E0,4.186063493E0,1.192263644E0,-1.339210605E0,4.553910980E0
6.708430750E0,3.291183390E0,1.273213667E0,-4.644911901E-1,3.559313588E0
6.718430750E0,1.812703218E0,1.721716742E0,-7.159997427E-1,2.600549390E0
6.728431750E0,6.111065412E-1,1.950684351E0,-1.123753572E0,2.332690021E0
6.738431750E0,-1.051975492E-1,1.631639800E0,-1.260966527E0,2.064788499E0
6.748431750E0,-4.599194714E-1,1.049109771E0,-1.161923026E0,1.631631806E0
6.758431750E0,-6.036440322E-1,5.817178506E-1,-9.674007797E-1,1.280096107E0
6.768431750E0,-6.426896918E-1,3.192807788E-1,-6.682257251E-1,9.805691588E-1
6.778432750E0,-7.198258683E-1,2.843547750E-1,-2.528284885E-1,8.142046201E-1
6.788432750E0,-7.996055710E-1,3.299706584E-1,1.197835748E-1,8.732684636E-1
6.798432750E0,-8.280648467E-1,3.281521744E-1,2.769667449E-1,9.327839073E-1
6.808432750E0,-8.047350410E-1,2.675931466E-1,2.485130972E-1,8.837213009E-1
6.818433750E0,-6.947044757E-1,1.430053532E-1,1.473486650E-1,7.244145696E-1
6.828433750E0,-5.464009604E-1,3.093235552E-2,-2.665694453E-2,5.479246416E-1
6.838433750E0,-4.062449554E-1,-1.801410198E-2,-2.310551385E-1,4.677028422E-1
6.848433750E0,-2.052713294E-1,1.998052061E-2,-4.736514381E-1,5.166054827E-1
6.858434750E0,1.267875159E-1,1.910758978E-1,-7.273632216E-1,7.626547903E-1
6.868434750E0,7.175659195E-1,3.564158607E-1,-9.149091554E-1,1.216138100E0
6.878434750E0,1.507207250E0,4.232331634E-1,-1.071298785E0,1.896966287E0
6.888434750E0,2.326952971E0,5.177077961E-1,-1.209019425E0,2.672912169E0
6.898434750E0,3.079491672E0,7.011378747E-1,-1.330958576E0,3.427289601E0
6.908435750E0,3.747692473E0,9.223818970E-1,-1.311848706E0,4.076387404E0
6.918435750E0,4.249625651E0,1.153555076E0,-8.990784037E-1,4.494257387E0
6.928435750E0,4.481123351E0,1.387178239E0,-1.962325573E-1,4.695022595E0
6.938435750E0,4.462128086E0,1.606910756E0,3.713098884E-1,4.757165150E0
6.948436750E0,4.440932221E0,1.683363100E0,5.247661163E-1,4.778176409E0
6.958436750E0,4.585942000E0,1.292954451E0,4.646279418E-1,4.787324343E0
6.968436750E0,4.809423167E0,5.689545482E-1,3.796604432E-1,4.857818701E0
6.978436750E0,4.946740934E0,-1.461242580E-1,3.941771793E-1,4.964571866E0
6.988436750E0,4.987795404E0,-6.984832388E-1,5.530302411E-1,5.066737044E0
6.998437750E0,5.020503559E0,-1.126739745E0,7.700362015E-1,5.202687209E0
7.008437750E0,5.051178052E0,-1.374721330E0,8.787827182E-1,5.308155755E0
7.018437750E0,5.064954677E0,-1.457350089E0,8.861168077E-1,5.344421219E0
7.028437750E0,5.168383151E0,-1.416403792E0,9.083520877E-1,5.435392131E0
7.038438750E0,5.366977399E0,-1.194503712E0,1.024274307E0,5.592890431E0
7.048438750E0,5.608593121E0,-7.820990074E-1,1.236356912E0,5.796255176E0
7.058438750E0,5.921565338E0,-4.907878000E-1,1.522043683E0,6.133712228E0
7.068438750E0,6.161775974E0,-4.222192562E-1,1.725186480E0,6.412645370E0
7.078439750E0,6.114020594E0,-4.134928715E-1,1.620098566E0,6.338528500E0
7.088439750E0,5.495988611E0,-2.217691022E-1,1.019963740E0,5.594229024E0
7.098439750E0,4.326892513E0,2.137420446E-1,-4.932237500E-1,4.360155289E0
7.108439750E0,2.853359085E0,7.565659708E-1,-3.627807888E0,4.677076032E0
7.118439750E0,1.242063502E0,1.201751921E0,-8.290932550E0,8.469149424E0
7.128440750E0,1.295181656E-1,8.792019635E-1,-1.251012023E1,1.254164579E1
7.138440750E0,3.703231707E-1,-6.247059953E-1,-5.662055383E0,5.708438314E0
7.148440750E0,8.375224257E-1,-1.980495796E0,9.800845599E-1,2.363127833E0
7.158440750E0,4.774216497E-1,-2.788752322E0,2.449106276E0,3.742083978E0
7.168441750E0,-2.859960884E-2,-3.450478209E0,2.538618962E0,4.283830534E0
7.178441750E0,-4.203311902E-1,-4.221216077E0,2.077333288E0,4.723415826E0
7.188441750E0,-9.648613340E-1,-4.983145698E0,1.462984904E0,5.282331235E0
7.198441750E0,-1.653721810E0,-5.368558486E0,1.466404502E0,5.805734941E0
7.208441750E0,-2.198603956E0,-5.254857039E0,1.584447069E0,5.912516754E0
7.218442750E0,-2.614522253E0,-4.690092021E0,1.448967082E0,5.561671995E0
7.228442750E0,-3.160057533E0,-3.833049835E0,1.058044317E0,5.079142883E0
7.238442750E0,-3.559094333E0,-2.970551612E0,4.942427735E-1,4.662145994E0
7.248442750E0,-3.520237246E0,-2.107294421E0,2.142326260E-1,4.108364111E0
7.258443750E0,-3.230855035E0,-1.515188992E0,4.848710024E-1,3.601294466E0
7.268443750E0,-2.945640720E0,-1.270174869E0,1.264680386E0,3.448124117E0
7.278443750E0,-2.760614936E0,-1.139707700E0,2.158804737E0,3.685154862E0
7.288443750E0,-2.608041199E0,-8.705486691E-1,2.685812091E0,3.843607741E0
7.298444750E0,-2.276721588E0,-4.124473894E-1,2.540990592E0,3.436598206E0
7.308444750E0,-1.836178327E0,1.048978794E-1,1.520834917E0,2.386523258E0
7.318444750E0,-1.377872395E0,5.067302334E-1,1.903103511E-1,1.480380321E0
7.328444750E0,-1.368760679E0,6.966349339E-1,-1.120700814E0,1.901256516E0
7.338444750E0,-2.079860455E0,7.345161206E-1,-2.272101703E0,3.166666953E0
7.348445750E0,-2.998342259E0,5.136638618E-1,-1.941400581E0,3.608731506E0
7.358445750E0,-3.574577175E0,2.159844518E-1,-6.109719090E-1,3.632841579E0
7.368445750E0,-3.941805707E0,-1.299251318E-3,1.875226180E-1,3.946263885E0
7.378445750E0,-4.122848952E0,-4.505279660E-2,7.000660801E-1,4.182105421E0
7.388446750E0,-4.151819567E0,7.118809640E-2,1.132192785E0,4.304013704E0
7.398446833E0,-4.058447134E0,3.609702569E-1,1.113169454E0,4.223794373E0
7.408446833E0,-3.931156173E0,8.363319325E-1,7.787567389E-1,4.093885931E0
7.418446833E0,-3.856693636E0,1.346668144E0,7.142023087E-1,4.147009263E0
7.428447833E0,-3.954990009E0,1.699127194E0,8.466054904E-1,4.386994421E0
7.438447833E0,-4.357656176E0,1.834859780E0,9.661530570E-1,4.825901936E0
7.448447833E0,-4.988709324E0,1.722325437E0,1.029090147E0,5.377048648E0
7.458447833E0,-5.589412499E0,1.548183661E0,1.024700058E0,5.889687168E0
7.468448833E0,-6.065982209E0,1.453283935E0,1.062789917E0,6.327534810E0
7.478448833E0,-6.401262140E0,1.486911857E0,1.242263185E0,6.688070101E0
7.488448833E0,-6.591310097E0,1.665515644E0,1.562539744E0,6.975732335E0
7.498448833E0,-6.671040975E0,1.909891251E0,1.834044678E0,7.177338794E0
7.508448833E0,-6.497326046E0,2.026038004E0,1.655632095E0,7.004369591E0
7.518449833E0,-5.650083209E0,1.767092890E0,1.240986153E0,6.048644822E0
7.528449833E0,-4.068413714E0,1.357469705E0,9.987183937E-1,4.403652186E0
7.538449833E0,-2.278263499E0,8.854906440E-1,7.175913548E-1,2.547452767E0
7.548449833E0,-2.739011228E-1,3.450968206E-1,-2.649466968E-1,5.141112650E-1
7.558450833E0,2.171393353E0,-1.994993967E-1,-2.133243195E0,3.050487770E0
7.568450833E0,5.381365643E0,-8.795872951E-1,-4.099059556E0,6.821661031E0
7.578450833E0,9.194409814E0,-1.451047960E0,-3.932155463E0,1.010468003E1
7.588450833E0,1.258366651E1,-1.739729090E0,-4.706008726E-1,1.271207242E1
7.598451833E0,1.569336431E1,-2.093937626E0,3.409767555E0,1.619545532E1
7.608451833E0,1.906511327E1,-2.334637089E0,3.173179269E0,1.946787459E1
7.618451833E0,2.134635768E1,-2.205496069E0,-7.186871231E-2,2.146011100E1
7.628451833E0,1.954777402E1,-1.522883928E-1,-2.325367498E0,1.968618792E1
7.638451833E0,1.173528580E1,3.079537865E0,-1.618530927E0,1.224010329E1
7.648452833E0,3.739154661E0,4.180479695E0,3.682390038E-1,5.620790694E0
7.658452833E0,-4.814322549E-1,4.230559927E0,3.185940233E0,5.317859483E0
7.668452833E0,-3.129618098E0,3.816256047E0,3.997132062E0,6.351014436E0
7.678452833E0,-4.325126361E0,2.873139338E0,3.242319671E0,6.121624339E0
7.688453833E0,-4.522363470E0,1.188734264E0,2.496244774E0,5.300575297E0
7.698453833E0,-4.367712802E0,-1.219209952E0,1.818979327E0,4.885905630E0
7.708453833E0,-3.852896454E0,-4.017879152E0,8.505862749E-1,5.631310769E0
7.718453833E0,-3.319523968E0,-7.493708550E0,-1.334319409E0,8.303933736E0
7.728454833E0,-2.799889514E0,-1.082111924E1,-1.778467478E0,1.131808065E1
7.738454833E0,-1.637766513E0,-1.270466645E1,7.830825090E-2,1.281003360E1
7.748454833E0,1.129418939E-1,-1.353350693E1,5.365978110E-1,1.354461158E1
7.758454833E0,9.920830464E-1,-1.129827075E1,-1.089778910E0,1.139397950E1
7.768455833E0,-9.070183378E-1,-4.617855518E0,-2.623739219E0,5.388068238E0
7.778455833E0,-4.695199564E0,5.717758298E-1,-4.474623293E0,6.511073656E0
7.788455833E0,-7.989427307E0,3.041115226E0,-6.227688712E0,1.057655129E1
7.798455833E0,-9.753708270E0,4.496478431E0,-4.048022134E0,1.147778840E1
7.808456833E0,-9.437236494E0,5.147988063E0,-1.002008841E0,1.079663075E1
7.818456833E0,-8.660023420E0,5.114347862E0,-7.673534989E-2,1.005775561E1
7.828456833E0,-7.794212165E0,4.435081497E0,1.425843537E-1,8.968836126E0
7.838456833E0,-7.393224149E0,3.144833137E0,5.294378954E-1,8.051710580E0
7.848456833E0,-6.566378739E0,9.173158693E-1,1.188786305E0,6.735874926E0
7.858457833E0,-4.873477660E0,-2.136067400E0,2.316390268E0,5.803381111E0
7.868457833E0,-2.985826294E0,-5.286906797E0,3.679128315E0,7.099473734E0
7.878457833E0,-1.494644215E0,-7.472601271E0,4.835947891E0,9.025526195E0
7.888457833E0,-9.029972076E-1,-7.338866093E0,5.377184883E0,9.142673392E0
7.898458833E0,-1.796458776E0,-3.721583194E0,4.569280944E0,6.160825752E0
7.908458833E0,-2.691502016E0,-9.659190953E-2,3.186083490E0,4.171886995E0
7.918458833E0,-3.044682320E0,1.968696699E0,2.492429466E0,4.399779741E0
7.928458833E0,-2.655888380E0,2.864532237E0,2.106198653E0,4.437945559E0
7.938459833E0,-1.522097770E0,2.685225615E0,1.487261521E0,3.426246496E0
7.948459833E0,-2.159961462E-2,1.736700232E0,-3.347261989E-1,1.768795033E0
7.958459833E0,1.198840007E0,6.708697629E-1,-8.490133739E-1,1.614963563E0
7.968459833E0,1.851158309E0,-2.499158442E-2,9.908136159E-1,2.099791248E0
7.978460833E0,1.971242577E0,-5.738574386E-2,1.336564740E0,2.382329894E0
7.988460833E0,1.801048256E0,1.778085655E-1,7.805652827E-1,1.970957347E0
7.998460833E0,1.564985342E0,5.479893565E-1,-3.008048929E-2,1.658425848E0
8.008460833E0,1.301122719E0,9.269994432E-1,-1.090378908E0,1.934211586E0
8.018461833E0,1.128691838E0,1.243741361E0,-1.951860811E0,2.574994847E0
8.028461833E0,1.064665119E0,1.354527386E0,-1.679950081E0,2.406343394E0
8.038461833E0,1.016769991E0,8.254987961E-1,-8.330471130E-1,1.552171695E0
8.048461833E0,7.385720417E-1,4.806960905E-1,-7.497172002E-1,1.156993203E0
8.058461833E0,1.567550808E-1,5.921492833E-1,-5.826528203E-1,8.453976805E-1
8.068462833E0,-3.160490227E-1,7.955066729E-1,3.983309682E-1,9.441320943E-1
8.078462833E0,-5.167775041E-1,6.958935070E-1,9.013874692E-1,1.250530340E0
8.088462833E0,-5.928427631E-1,4.235459894E-1,8.926475628E-1,1.152247117E0
8.098462833E0,-6.255971110E-1,2.069972813E-1,7.094437715E-1,9.682613721E-1
8.108463833E0,-6.792295271E-1,1.441478992E-1,4.929296350E-1,8.515344928E-1
8.118463833E0,-7.884876752E-1,2.874771881E-1,2.888868787E-1,8.875875035E-1
8.128463833E0,-8.731328461E-1,5.490465331E-1,1.942749095E-1,1.049550286E0
8.138463833E0,-7.752104026E-1,7.820610005E-1,1.880896517E-1,1.117116061E0
8.148464833E0,-5.007121329E-1,9.121978015E-1,2.196856662E-1,1.063522102E0
8.158464833E0,-3.824225217E-2,9.332834458E-1,2.504818547E-1,9.670685703E-1
8.168464833E0,5.643897732E-1,8.649207240E-1,2.648396196E-1,1.066191211E0
8.178464833E0,1.155722493E0,7.379279709E-1,1.662964211E-1,1.381262709E0
8.188465833E0,1.727666138E0,6.133249748E-1,-1.336218146E-1,1.838165552E0
8.198465833E0,2.285482763E0,5.252027571E-1,-7.915504467E-1,2.475039698E0
8.208465833E0,2.860215238E0,4.521564156E-1,-1.851816705E0,3.437222969E0
8.218465833E0,3.430995871E0,3.946712691E-1,-2.783575197E0,4.435739956E0
8.228466833E0,3.866390659E0,3.609848750E-1,-3.002041792E0,4.908313532E0
8.238466833E0,4.212343512E0,3.666145742E-1,-2.602336071E0,4.964916629E0
8.248466833E0,4.407242611E0,4.165743542E-1,-1.416036587E0,4.647846947E0
8.258466833E0,4.265851674E0,5.378035069E-1,1.346450043E-1,4.301726676E0
8.268467833E0,3.840005390E0,6.582427007E-1,9.773603421E-1,4.016734755E0
8.278467833E0,3.477159054E0,7.079539740E-1,1.074696602E0,3.707668635E0
8.288467833E0,3.253838101E0,6.732273602E-1,8.448244286E-1,3.428472806E0
8.298467833E0,3.081159298E0,4.146406800E-1,5.524664965E-1,3.157639742E0
8.308468833E0,2.968703308E0,-5.398734212E-2,3.739188429E-1,2.992645863E0
8.318468833E0,3.035590192E0,-5.634640127E-1,3.566070281E-1,3.107968481E0
8.328468833E0,3.207837471E0,-9.291985810E-1,4.823695270E-1,3.374360918E0
8.338468833E0,3.495024052E0,-1.057868316E0,6.258426940E-1,3.704855945E0
8.348468833E0,3.961907558E0,-9.180420935E-1,7.315719744E-1,4.132155652E0
8.358469833E0,4.500228835E0,-7.265533823E-1,8.810227865E-1,4.642859091E0
8.368469833E0,5.008607399E0,-5.089404809E-1,1.111409515E0,5.155618256E0
8.378469833E0,5.246562763E0,2.057225883E-2,1.347550489E0,5.416893609E0
8.388469833E0,5.223960936E0,8.556517178E-1,1.494614979E0,5.500525580E0
8.398470833E0,5.159077892E0,1.617870777E0,1.564194506E0,5.628525118E0
8.408470833E0,5.164318167E0,2.106807348E0,1.646116337E0,5.815369148E0
8.418470833E0,5.154967884E0,2.381416569E0,1.688416264E0,5.924152956E0
8.428470833E0,5.039795862E0,2.471138585E0,1.644168044E0,5.848876541E0
8.438471833E0,4.839262093E0,2.168148149E0,1.431445169E0,5.492573102E0
8.448471833E0,4.597302555E0,1.455110021E0,1.713479769E-1,4.825131717E0
8.458471833E0,4.078892801E0,4.903141755E-1,-3.288869355E0,5.262550342E0
8.468471833E0,3.050289215E0,-2.304826230E-1,-4.069995385E0,5.091389690E0
8.478472833E0,1.943870006E0,-1.035422609E0,-3.336133568E0,3.997563979E0
8.488472833E0,9.827087903E-1,-2.350219919E0,-2.656256754E0,3.680346476E0
8.498472833E0,3.828683719E-1,-3.550680774E0,4.594251624E-1,3.600693493E0
8.508472833E0,-6.541660219E-2,-3.880185410E0,3.034359938E0,4.926201212E0
8.518473833E0,-5.087220874E-1,-3.761375835E0,3.660010843E0,5.272800556E0
8.528473833E0,-9.852014583E-1,-3.756093460E0,3.684815902E0,5.353197944E0
8.538473833E0,-1.414004387E0,-3.875694748E0,3.372813152E0,5.328816637E0
8.548473833E0,-1.752982389E0,-3.937177636E0,2.887687211E0,5.187779142E0
8.558474833E0,-2.125848806E0,-3.683794393E0,2.637022046E0,5.004344068E0
8.568474833E0,-2.320798484E0,-3.019663546E0,2.922002181E0,4.800267730E0
8.578474833E0,-2.124580545E0,-2.250357662E0,3.433793179E0,4.622649424E0
8.588474833E0,-1.712938902E0,-1.707316804E0,4.002545122E0,4.676479210E0
8.598475833E0,-1.172095720E0,-1.452726696E0,4.698211464E0,5.055434125E0
8.608475833E0,-5.544212937E-1,-1.145800499E0,5.099866648E0,5.256318253E0
8.618475833E0,-7.997821569E-3,-8.573029715E-1,5.056772668E0,5.128935774E0
8.628475833E0,4.639777315E-1,-5.396447951E-1,4.691515818E0,4.745188353E0
8.638476833E0,8.471761787E-1,-2.301657039E-1,3.856142828E0,3.954809887E0
8.648476833E0,1.067974643E0,-1.144183159E-2,2.653316482E0,2.860207878E0
8.658476833E0,1.005208876E0,8.602599084E-2,1.709613006E0,1.985099994E0
8.668476833E0,4.643344116E-1,1.837370574E-2,1.862926561E0,1.920010264E0
8.678477833E0,-5.958406305E-1,-2.577113521E-1,2.789915918E0,2.864449690E0
8.688477833E0,-1.950170966E0,-5.186743408E-1,3.360342211E0,3.919705300E0
8.698477833E0,-3.200592771E0,-9.455175751E-1,3.234713613E0,4.647705856E0
8.708477833E0,-4.202062937E0,-1.577374130E0,2.843754449E0,5.313415233E0
8.718478833E0,-4.938029167E0,-2.198981686E0,2.572520241E0,5.986444095E0
8.728478833E0,-5.494029209E0,-2.437183803E0,2.353486905E0,6.454697704E0
8.738478833E0,-5.914824083E0,-2.174337426E0,1.759858861E0,6.542934387E0
8.748478833E0,-5.952785377E0,-1.507906870E0,7.232245624E-1,6.183242728E0
8.758479833E0,-5.470140409E0,-8.035296375E-1,-3.116697505E-2,5.528930037E0
8.768479833E0,-4.957988053E0,-4.054751694E-1,7.670362875E-2,4.975132068E0
8.778479833E0,-4.681964976E0,-3.355699521E-1,4.536958413E-1,4.715850204E0
8.788479833E0,-4.586745992E0,-4.289242584E-1,6.872045445E-1,4.657731734E0
8.798480833E0,-4.634959794E0,-5.261704713E-1,1.047018953E0,4.780790347E0
8.808480833E0,-4.745923575E0,-4.723187846E-1,1.395674389E0,4.969384530E0
8.818480833E0,-4.819718944E0,-3.212489516E-1,1.424731543E0,5.036144513E0
8.828480833E0,-4.842700841E0,-6.116889238E-2,1.346409258E0,5.026759489E0
8.838481833E0,-4.864256601E0,3.412937915E-1,1.316332204E0,5.050762735E0
8.848481833E0,-4.758894453E0,8.132050252E-1,1.186415259E0,4.971514859E0
8.858481833E0,-4.482552118E0,1.330667823E0,7.477268811E-1,4.735297861E0
8.868481833E0,-3.968017606E0,1.566443346E0,-6.136762463E-2,4.266459241E0
8.878482833E0,-3.040880753E0,1.289267782E0,-7.298681688E-1,3.382584029E0
8.888482833E0,-1.808716294E0,9.476518089E-1,-1.200331559E0,2.368606011E0
8.898482833E0,-4.771105778E-1,7.188338882E-1,-1.615625446E0,1.831557327E0
8.908482833E0,1.018997195E0,4.741378534E-1,-2.204323118E0,2.474308468E0
8.918483833E0,2.930052043E0,1.613819826E-1,-3.408122149E0,4.497393211E0
8.928483833E0,5.055921898E0,-6.765403926E-2,-3.617618530E0,6.217241120E0
8.938483833E0,6.806651355E0,-1.184488016E-1,-1.881513544E0,7.062904927E0
8.948483833E0,8.179717339E0,-1.958098036E-1,1.064963912E0,8.251076618E0
8.958484833E0,9.254081234E0,-4.857615334E-1,4.359120319E0,1.024089419E1
8.968484833E0,9.678921797E0,-7.988723302E-1,6.751078248E0,1.182779699E1
8.978484833E0,9.511635296E0,-8.446683079E-1,6.250820882E0,1.141303782E1
8.988484833E0,8.630281557E0,-4.185214770E-1,3.278349044E0,9.241455104E0
8.998485833E0,6.305252028E0,4.813164800E-1,-3.174066365E-1,6.331557128E0
9.008485833E0,3.206562778E0,1.939524356E0,-1.167435197E0,3.925137515E0
9.018485833E0,7.767148912E-1,3.196300330E0,4.221210229E-1,3.316294314E0
9.028485833E0,-1.060967340E0,3.417088269E0,1.885564495E0,4.044440307E0
9.038486833E0,-2.253004696E0,2.314280008E0,1.963661077E0,3.779932135E0
9.048486833E0,-2.622946336E0,2.566401422E-1,1.367372550E0,2.969077186E0
9.058486833E0,-2.495165378E0,-2.028900801E0,6.129004669E-1,3.273825852E0
9.068486833E0,-1.993104147E0,-4.612362644E0,-7.819598436E-2,5.025183371E0
9.078487833E0,-8.653130722E-1,-7.522334763E0,-9.082322198E-1,7.626216150E0
9.088487833E0,1.741718313E0,-1.067839339E1,-2.363144020E0,1.107457077E1
9.098487833E0,5.110037879E0,-1.254011761E1,-1.969668506E0,1.368380908E1
9.108487833E0,6.446840601E0,-1.041361626E1,1.440110743E0,1.233203455E1
9.118488833E0,4.114844699E0,-3.872627299E0,3.797042681E0,6.807842699E0
9.128488833E0,2.117873204E-1,1.856552950E0,3.543919054E0,4.006370551E0
9.138488833E0,-2.921167198E0,4.823336032E0,1.547345170E0,5.847398170E0
9.148488833E0,-5.133534331E0,6.322360396E0,7.129868187E-2,8.144353824E0
9.158489833E0,-6.748451679E0,7.133316582E0,-1.761262850E-1,9.821243607E0
9.168489833E0,-7.524875379E0,7.552732683E0,-2.826766971E-1,1.066524386E1
9.178489833E0,-7.681230510E0,7.431287184E0,-1.827956557E-2,1.068764078E1
9.188489833E0,-7.600830710E0,6.336518844E0,2.494048341E-1,9.898803024E0
9.198490833E0,-6.871528552E0,3.932685220E0,3.077155709E-1,7.923295183E0
9.208490833E0,-6.065429063E0,7.507918453E-1,3.658345922E-1,6.122658986E0
9.218490833E0,-4.958090379E0,-2.811799707E0,8.022578681E-1,5.756083346E0
9.228490833E0,-3.417251406E0,-6.450714966E0,1.632949576E0,7.480364635E0
9.238491833E0,-2.071608279E0,-9.413858741E0,2.669573203E0,1.000194573E1
9.248491833E0,-1.016090837E0,-1.051821242E1,3.572231272E0,1.115464340E1
9.258491833E0,-1.242311132E0,-8.057121692E0,3.796745642E0,8.993098708E0
9.268491833E0,-2.340046349E0,-3.413727289E0,3.256653535E0,5.266416540E0
9.278492833E0,-3.108717225E0,5.182153344E-2,2.838256019E0,4.209810624E0
9.288492833E0,-3.382542919E0,2.038534089E0,2.647142115E0,4.754427327E0
9.298492833E0,-3.256382809E0,3.054505350E0,2.460258086E0,5.097734966E0
9.308492833E0,-2.626405549E0,3.327159262E0,1.911938946E0,4.650108106E0
9.318493833E0,-1.357434037E0,2.666280051E0,1.270874780E0,3.250661346E0
9.328493833E0,8.746528298E-2,1.215493462E0,1.497025201E0,1.930326134E0
9.338493833E0,1.001833863E0,1.569965708E-1,1.607092019E0,1.900279919E0
9.348493833E0,1.278160411E0,-2.298517084E-1,9.504122794E-1,1.609288459E0
9.358494833E0,1.104527342E0,-2.920953190E-1,-7.539575279E-1,1.368850715E0
9.368494833E0,6.363741142E-1,-3.343625021E-1,-3.288707387E0,3.366358058E0
9.378494833E0,-2.133093506E-2,-4.683052558E-1,-4.075675955E0,4.102547905E0
9.388494833E0,-3.429014835E-1,-5.964276910E-1,-2.438175491E0,2.533378602E0
9.398496250E0,-5.596317476E-1,-4.542462105E-1,-8.656253135E-1,1.126425540E0
9.408496250E0,-9.810742012E-1,-6.429130554E-2,-2.159534615E-1,1.006616043E0
9.418496250E0,-1.408239032E0,3.437379277E-1,-2.035264106E-1,1.463801877E0
9.428496250E0,-1.604635896E0,6.588882333E-1,1.758175703E-1,1.743531440E0
9.438497250E0,-1.470525912E0,7.435927534E-1,7.627260125E-1,1.815799442E0
9.448497250E0,-1.123574940E0,6.167537820E-1,9.421583498E-1,1.590744552E0
9.458497250E0,-6.920144641E-1,5.081353194E-1,8.273260510E-1,1.192289359E0
9.468497250E0,-3.687480770E-1,5.763641399E-1,6.198949063E-1,9.232770228E-1
9.478498250E0,-1.986955507E-1,7.750092584E-1,5.390384388E-1,9.647184620E-1
9.488498250E0,-7.317731917E-2,9.201073301E-1,6.671830934E-1,1.138896703E0
9.498498250E0,9.661295950E-2,9.024317819E-1,9.756523705E-1,1.332521945E0
9.508498250E0,3.145860493E-1,6.528451359E-1,1.230944729E0,1.428424335E0
9.518499250E0,5.799747956E-1,2.674802953E-1,1.209822248E0,1.368059335E0
9.528499250E0,9.122787854E-1,-4.977266908E-2,8.754854733E-1,1.265387180E0
9.538499250E0,1.346392886E0,-1.975008184E-1,4.030509504E-1,1.419235867E0
9.548499250E0,1.914507628E0,-1.372902846E-1,7.978525758E-2,1.921081406E0
9.558500250E0,2.546274136E0,9.399516106E-2,7.542031109E-2,2.549124417E0
9.568500250E0,3.191531925E0,4.395696992E-1,2.774719809E-1,3.233587520E0
9.578500250E0,3.820147954E0,7.367842555E-1,4.986253713E-1,3.922372839E0
9.588500250E0,4.396995951E0,9.614652711E-1,5.618261711E-1,4.535817182E0
9.598501250E0,4.842985600E0,1.181028804E0,3.183533738E-1,4.995066309E0
9.608501250E0,5.088568658E0,1.387143740E0,-3.925417131E-1,5.288836142E0
9.618501250E0,5.085345088E0,1.209172622E0,-1.226606095E0,5.369114974E0
9.628501250E0,4.605055086E0,3.772553372E-1,-1.363377732E0,4.817432177E0
9.638502250E0,3.899891404E0,-3.112718475E-1,-1.264136449E0,4.111457659E0
9.648502250E0,3.376182902E0,-8.038939190E-1,-1.276026177E0,3.697715407E0
9.658502250E0,3.146767689E0,-1.351304401E0,-1.021424448E0,3.573720523E0
9.668503250E0,3.142907649E0,-1.885352241E0,-4.231437010E-1,3.689372868E0
9.678503250E0,3.326224000E0,-2.203330845E0,1.966652513E-1,3.994635169E0
9.688503250E0,3.602858988E0,-2.308384261E0,5.959757012E-1,4.320233537E0
9.698503250E0,3.947900260E0,-2.297981479E0,8.021339071E-1,4.637893288E0
9.708504250E0,4.396600387E0,-2.115685176E0,1.109594539E0,5.003740477E0
9.718504250E0,4.870465467E0,-1.762962416E0,1.520011775E0,5.398139137E0
9.728504250E0,5.323439031E0,-1.446265522E0,1.917137121E0,5.840042964E0
9.738504250E0,5.698808641E0,-1.165849432E0,2.139402652E0,6.197795458E0
9.748505250E0,5.864842669E0,-7.667652690E-1,2.171396277E0,6.300735695E0
9.758505250E0,5.679316363E0,-2.131456286E-1,2.043069774E0,6.039387346E0
9.768505250E0,5.095126895E0,4.737051594E-1,1.502129821E0,5.333020593E0
9.778505250E0,4.344202025E0,1.192229145E0,6.919361115E-2,4.505362286E0
9.788506250E0,3.658117222E0,1.697083007E0,-1.526878746E0,4.311991541E0
9.798506250E0,3.166951692E0,1.741091491E0,-2.007859011E0,4.134305312E0
9.808506250E0,2.463670813E0,1.516130394E0,-1.863428106E0,3.441030304E0
9.818506250E0,1.552405496E0,1.169201056E0,-1.246528144E0,2.308858235E0
9.828507250E0,6.932260072E-1,6.747341877E-1,-2.638627692E-1,1.002722336E0
9.838507250E0,-2.338155359E-2,5.351254821E-2,6.515330207E-1,6.541449128E-1
9.848507250E0,-5.265844542E-1,-7.058138931E-1,8.601322930E-1,1.230971974E0
9.858507250E0,-8.021225050E-1,-1.603675491E0,8.287562799E-1,1.975351251E0
9.868508250E0,-9.258946118E-1,-2.358370938E0,1.140354402E0,2.778417261E0
9.878508250E0,-1.162964123E0,-2.795913407E0,1.537904402E0,3.396287279E0
9.888508250E0,-1.531435188E0,-2.826957445E0,1.604333595E0,3.593169689E0
9.898508250E0,-1.868526586E0,-2.437666783E0,1.422245160E0,3.384729272E0
9.908509250E0,-2.139167301E0,-1.748016348E0,1.287982710E0,3.048031719E0
9.918509250E0,-2.090499171E0,-1.072574063E0,1.288432800E0,2.679675537E0
9.928509250E0,-1.885831713E0,-6.523422754E-1,1.298516762E0,2.380768253E0
9.938509250E0,-1.670965541E0,-4.486586112E-1,1.268483269E0,2.145336849E0
9.948510250E0,-1.372203519E0,-4.973197246E-1,1.225875924E0,1.906053826E0
9.958510250E0,-1.075404408E0,-6.308514190E-1,1.191205298E0,1.724366033E0
9.968510250E0,-8.489633802E-1,-6.872799736E-1,1.132957528E0,1.573748818E0
9.978511250E0,-7.071701548E-1,-6.379990554E-1,1.127789759E0,1.476157906E0
9.988511250E0,-5.914674979E-1,-5.268867552E-1,1.097550298E0,1.353536151E0
9.998511250E0,-4.306240439E-1,-3.567538297E-1,1.029935582E0,1.171954634E0
1.000851125E1,-3.053568041E-1,-1.636928022E-1,7.647327769E-1,8.395560323E-1
1.001851225E1,-2.237898999E-1,2.537808537E-2,2.087060570E-1,3.070572988E-1
1.002851225E1,-1.935083395E-1,7.902687371E-2,-4.661118190E-1,5.108335855E-1
1.003851225E1,-3.761847121E-1,1.188329637E-2,-6.794322793E-1,7.767138292E-1
1.004851225E1,-8.807964993E-1,-2.160546184E-1,-2.901727545E-1,9.521986656E-1
1.005851325E1,-1.703615516E0,-5.967364240E-1,2.943581915E-1,1.828946946E0
1.006851325E1,-2.670200025E0,-9.705097443E-1,5.231913149E-1,2.888872875E0
1.007851325E1,-3.497253011E0,-1.149892965E0,3.874177980E-1,3.701773224E0
1.008851325E1,-3.867212192E0,-1.162223573E0,2.108364169E-1,4.043580810E0
1.009851425E1,-4.044848265E0,-9.235033929E-1,-1.179195555E-1,4.150609717E0
1.010851425E1,-4.200930916E0,-4.624954623E-1,-3.627705415E-1,4.241853967E0
1.011851425E1,-4.418461956E0,1.004329455E-1,-3.001668155E-1,4.429784753E0
1.012851425E1,-4.639435253E0,6.167485195E-1,7.911984444E-2,4.680918515E0
1.013851525E1,-4.973080886E0,9.997914308E-1,6.341025440E-1,5.112064401E0
1.014851525E1,-5.331611100E0,1.156352384E0,1.012597491E0,5.548745934E0
1.015851525E1,-5.668337631E0,1.157696659E0,1.087704903E0,5.886715129E0
1.016851625E1,-6.018972934E0,1.177815759E0,9.834934136E-1,6.211484882E0
1.017851625E1,-6.287671205E0,1.260097777E0,9.462058655E-1,6.482126281E0
1.018851625E1,-6.422481685E0,1.432752022E0,9.157067156E-1,6.643761596E0
1.019851625E1,-6.385794500E0,1.643661675E0,8.478497779E-1,6.648221142E0
1.020851725E1,-6.174754454E0,1.743374244E0,6.821525502E-1,6.452307992E0
1.021851725E1,-5.683062674E0,1.637085897E0,4.227256616E-1,5.929245195E0
1.022851725E1,-4.826319281E0,1.413294243E0,7.463850182E-2,5.029545638E0
1.023851725E1,-3.742959445E0,1.207678658E0,-4.183507383E-1,3.955154926E0
1.024851825E1,-2.381719455E0,8.384030163E-1,-1.183074160E0,2.788399477E0
1.025851825E1,-5.040387601E-1,2.705851668E-1,-2.492248203E0,2.557063258E0
1.026851825E1,2.074845883E0,-3.834054387E-1,-4.361812377E0,4.845347498E0
1.027851825E1,5.258046110E0,-9.303399575E-1,-5.332906843E0,7.546686473E0
1.028851925E1,8.351534262E0,-8.822816920E-1,-3.857709298E0,9.241670117E0
1.029851925E1,1.092114873E1,-3.300355625E-1,1.163636480E-1,1.092675403E1
1.030851925E1,1.253077376E1,3.704129255E-1,5.197698167E0,1.357105608E1
1.031851925E1,1.402502154E1,8.378457767E-1,7.840458963E0,1.608962434E1
1.032852025E1,1.523617169E1,6.620153242E-1,5.367826999E0,1.616764543E1
1.033852025E1,1.552780741E1,4.114136016E-1,-1.469504696E-1,1.553395181E1
1.034852025E1,1.306680790E1,9.099963248E-1,-3.831537745E0,1.364735299E1
1.035852125E1,6.721761478E0,2.012198814E0,-3.542256691E0,7.859936635E0
1.036852125E1,1.704403721E0,2.730457336E0,-6.110702884E-1,3.276247275E0
1.037852125E1,-1.130397179E0,2.658544770E0,2.418994285E0,3.767916059E0
1.038852125E1,-3.150344723E0,1.907647675E0,3.305190103E0,4.948542527E0
1.039852225E1,-4.204731022E0,4.007348317E-1,2.914521253E0,5.131742930E0
1.040852258E1,-4.031104385E0,-1.676588516E0,2.339092083E0,4.952989338E0
1.041852258E1,-3.399068320E0,-3.633042315E0,1.844449214E0,5.306096005E0
1.042852258E1,-2.745696350E0,-5.695685059E0,1.011646661E0,6.403366747E0
1.043852358E1,-1.858012415E0,-8.456671293E0,-1.063461177E0,8.723442507E0
1.044852358E1,-6.855743408E-1,-1.180896890E1,-3.630503454E0,1.237345199E1
1.045852358E1,1.106175672E0,-1.343472407E1,-2.954464168E0,1.380015557E1
1.046852358E1,2.839768694E0,-1.238817070E1,-2.778305687E0,1.300961344E1
1.047852458E1,2.596004121E0,-7.637317336E0,-3.356895862E0,8.737082082E0
1.048852458E1,-1.178720908E0,-1.254389141E0,-1.733459705E0,2.442899434E0
1.049852458E1,-5.349807635E0,2.480288892E0,-4.208289637E0,7.244444519E0
1.050852458E1,-8.754644233E0,4.300389715E0,-7.454269665E0,1.227612657E1
1.051852558E1,-1.017190172E1,4.932690659E0,-4.879003279E0,1.231274521E1
1.052852558E1,-9.919036539E0,5.313612785E0,-1.463679700E0,1.134742812E1
1.053852558E1,-9.540227596E0,5.643779325E0,-6.045541513E-1,1.110106632E1
1.054852658E1,-8.902368874E0,5.405354429E0,-4.406129155E-1,1.042421066E1
1.055852658E1,-8.466723241E0,4.252296367E0,1.073390919E-1,9.475175382E0
1.056852658E1,-7.155907300E0,1.850675914E0,8.620029634E-1,7.441442047E0
1.057852658E1,-5.178284826E0,-1.658650428E0,2.112099663E0,5.833242663E0
1.058852758E1,-3.141916254E0,-5.395192553E0,3.694267341E0,7.254471147E0
1.059852758E1,-1.324618294E0,-8.346068870E0,5.084553959E0,9.862259790E0
1.060852758E1,-1.966743144E-1,-8.979121765E0,5.365569974E0,1.046196203E1
1.061852758E1,-8.703381693E-1,-5.759582847E0,4.241380785E0,7.205525245E0
1.062852858E1,-2.158815700E0,-1.238549618E0,2.572335176E0,3.579301418E0
1.063852858E1,-2.656586245E0,1.420298038E0,1.444893765E0,3.341020052E0
1.064852858E1,-2.749225144E0,2.781904063E0,6.096809900E-1,3.958401195E0
1.065852858E1,-2.438727176E0,3.547402825E0,-1.365459926E0,4.516186207E0
1.066852958E1,-1.583200004E0,3.268759611E0,-2.014555242E0,4.153281169E0
1.067852958E1,-1.203643495E-1,1.441176690E0,3.428286491E-1,1.486273633E0
1.068852958E1,1.124116392E0,1.920459509E-2,1.158756686E0,1.614535084E0
1.069853058E1,1.714274113E0,-4.893663418E-1,1.023473166E0,2.055653783E0
1.070853058E1,1.774322387E0,-5.078634238E-1,6.708937365E-1,1.963732058E0
1.071853058E1,1.742741283E0,-3.450020957E-1,1.044726406E-1,1.779631467E0
1.072853058E1,1.598380545E0,3.581010282E-2,-9.762079290E-1,1.873255095E0
1.073853158E1,1.180577399E0,7.379133528E-1,-2.973699753E0,3.283469100E0
1.074853158E1,4.185977831E-1,1.479007591E0,-4.154716862E0,4.429939025E0
1.075853158E1,-1.236890763E-2,1.117126338E0,-2.302868582E0,2.559556202E0
1.076853158E1,-1.468589607E-1,8.486590326E-1,-7.804524314E-1,1.162280390E0
1.077853258E1,-5.096073559E-1,8.102369785E-1,-2.278561999E-1,9.839217786E-1
1.078853258E1,-7.967570999E-1,6.683361644E-1,-1.129437943E-1,1.046064723E0
1.079853258E1,-8.397861752E-1,4.916438323E-1,-1.025145543E-1,9.785007469E-1
1.080853358E1,-7.423815027E-1,3.346373212E-1,2.395078003E-2,8.146693023E-1
1.081853358E1,-5.374383482E-1,1.113824415E-1,2.068822373E-1,5.865545896E-1
1.082853358E1,-3.129385963E-1,-4.347112477E-2,3.421502624E-1,4.657113976E-1
1.083853358E1,-1.347958624E-1,-5.241502583E-2,4.041227084E-1,4.292230457E-1
1.084853458E1,1.460181311E-2,5.114676476E-2,4.017368983E-1,4.052428160E-1
1.085853458E1,1.227846582E-1,2.003940207E-1,3.525331633E-1,4.236902961E-1
1.086853458E1,2.828532100E-1,2.952569085E-1,3.229662788E-1,5.210468287E-1
1.087853458E1,5.095566313E-1,2.924549228E-1,3.207183167E-1,6.693564679E-1
1.088853558E1,7.868986943E-1,2.958515704E-1,3.495465517E-1,9.104507118E-1
1.089853558E1,1.070984351E0,4.047243869E-1,3.483543044E-1,1.196728888E0
1.090853558E1,1.395336712E0,5.387870085E-1,3.244492789E-1,1.530530404E0
1.091853558E1,1.766094477E0,6.429592484E-1,2.208744782E-1,1.892424855E0
1.092853658E1,2.159944067E0,7.269866610E-1,-3.480555117E-4,2.279005945E0
1.093853658E1,2.538766896E0,8.839434707E-1,-3.785885024E-1,2.714778567E0
1.094853658E1,2.959913188E0,1.148881981E0,-1.094432709E0,3.358392300E0
1.095853758E1,3.595240066E0,1.242649686E0,-1.538540579E0,4.103295808E0
1.096853758E1,4.370999230E0,1.025544907E0,-1.082488748E0,4.618350194E0
1.097853758E1,4.994775810E0,8.229979420E-1,-4.981069060E-1,5.086572667E0
1.098853758E1,5.274525318E0,8.994111103E-1,-1.332674003E-1,5.352318925E0
1.099853858E1,5.246923537E0,1.137072360E0,1.002073891E-1,5.369653776E0
1.100853858E1,5.094573748E0,1.229543152E0,3.613433093E-3,5.240846410E0
1.101853858E1,4.982128868E0,7.747040337E-1,-3.476101732E-1,5.053969452E0
1.102853858E1,4.773673875E0,1.361816525E-3,-4.644783993E-1,4.796217708E0
1.103853958E1,4.467634701E0,-4.949153495E-1,-1.504986332E-1,4.497482725E0
1.104853958E1,4.121775404E0,-8.218489641E-1,6.043141231E-2,4.203346304E0
1.105853958E1,3.858812082E0,-1.135388362E0,6.991676554E-2,4.022987170E0
1.106854058E1,3.784810306E0,-1.422120615E0,9.476699352E-2,4.044279525E0
1.107854058E1,3.880810477E0,-1.666019089E0,1.895438542E-1,4.227556793E0
1.108854058E1,3.909823776E0,-1.573592151E0,2.938786467E-1,4.224840693E0
1.109854058E1,3.825620947E0,-1.007526712E0,3.862757637E-1,3.974882976E0
1.110854158E1,3.887039516E0,-4.807680112E-1,5.585517669E-1,3.956285399E0
1.111854158E1,4.299841831E0,-4.055441666E-1,8.266441926E-1,4.397322648E0
1.112854158E1,4.714822819E0,-3.983456594E-1,1.008634760E0,4.837931124E0
1.113854158E1,4.800638018E0,-1.851889211E-1,9.460584426E-1,4.896472903E0
1.114854258E1,4.385754386E0,1.385345721E-1,3.709836137E-1,4.403596508E0
1.115854258E1,3.422196981E0,4.276273459E-1,-9.988991457E-1,3.590556618E0
1.116854258E1,2.287972508E0,3.971101427E-1,-2.732348911E0,3.585839543E0
1.117854358E1,1.101958807E0,8.652125001E-2,-6.146977256E0,6.245568711E0
1.118854358E1,-7.832959324E-2,-6.284955758E-1,-1.146034037E1,1.147782834E1
1.119854358E1,-1.245778531E-1,-1.775101821E0,-6.208180647E0,6.458174127E0
1.120854358E1,1.019798264E-1,-2.503985319E0,-8.594290191E-1,2.649332104E0
1.121854458E1,-1.758079407E-1,-3.078180726E0,4.393422425E-1,3.114342085E0
1.122854458E1,-4.349080065E-1,-3.616694670E0,8.177331090E-1,3.733404980E0
1.123854458E1,-8.484438550E-1,-3.978593464E0,8.165765297E-1,4.149199942E0
1.124854558E1,-1.503589870E0,-3.956770486E0,9.388522609E-1,4.335695878E0
1.125854558E1,-2.260285649E0,-3.570476523E0,1.296354461E0,4.420150304E0
1.126854558E1,-2.875813270E0,-3.053582075E0,1.630876154E0,4.500491360E0
1.127854558E1,-2.937611615E0,-2.582183057E0,1.835589366E0,4.320488360E0
1.128854658E1,-2.658807602E0,-2.113842718E0,1.939977515E0,3.911662263E0
1.129854658E1,-2.456668480E0,-1.530425082E0,1.920878023E0,3.473786599E0
1.130854658E1,-2.144062006E0,-9.343376988E-1,1.843846804E0,2.978214206E0
1.131854658E1,-1.726180214E0,-4.602267426E-1,1.799457228E0,2.535656345E0
1.132854758E1,-1.123324971E0,-2.026832056E-1,1.773242991E0,2.108869407E0
1.133854758E1,-3.921961427E-1,-9.498509467E-2,1.647789810E0,1.696482019E0
1.134854758E1,3.561767095E-1,8.191364408E-3,1.452029707E0,1.495098397E0
1.135854858E1,9.939196569E-1,2.731947792E-1,1.010533424E0,1.443499038E0
1.136854858E1,1.341743619E0,7.258733511E-1,5.237959170E-1,1.612925982E0
1.137854858E1,1.405683507E0,1.217312531E0,2.765826559E-1,1.879971778E0
1.138854858E1,1.013147056E0,1.609695784E0,-2.734048404E-2,1.902192151E0
1.139854958E1,-1.578941184E-1,1.592228982E0,-4.534538396E-1,1.663052635E0
1.140854887E1,-1.928663152E0,9.326876146E-1,-6.417447817E-1,2.236399809E0
1.141854887E1,-3.228707353E0,-6.180506945E-4,-3.053333422E-1,3.243112703E0
1.142854888E1,-4.306477252E0,-8.532379872E-1,3.272780156E-1,4.402371211E0
1.143854987E1,-5.195248184E0,-1.403104300E0,8.170923273E-1,5.443063957E0
1.144854988E1,-5.802972111E0,-1.473021212E0,9.778159133E-1,6.066333387E0
1.145854988E1,-6.016514180E0,-1.174836602E0,8.327301208E-1,6.186446749E0
1.146855087E1,-5.822173782E0,-4.349568307E-1,4.991815511E-1,5.859699413E0
1.147855088E1,-5.513530258E0,5.306582093E-1,1.951647826E-1,5.542445609E0
1.148855087E1,-5.151398744E0,1.438845990E0,4.976104774E-2,5.348800143E0
1.149855087E1,-4.796260500E0,2.010435294E0,8.655395787E-2,5.201293728E0
1.150855188E1,-4.614476997E0,2.142038577E0,2.821129525E-1,5.095224719E0
1.151855187E1,-4.697719129E0,1.982342931E0,3.324644959E-1,5.109675249E0
1.152855187E1,-4.952749532E0,1.718210167E0,1.966792846E-1,5.246013424E0
1.153855187E1,-5.245817243E0,1.631552677E0,8.032554030E-2,5.494271096E0
1.154855287E1,-5.496253490E0,1.798653821E0,8.441276232E-2,5.783691166E0
1.155855287E1,-5.631793118E0,2.092282864E0,6.854690909E-2,6.008280951E0
1.156855288E1,-5.592128531E0,2.399473940E0,3.616852800E-2,6.085284287E0
1.157855387E1,-5.237818837E0,2.605784174E0,-1.703504419E-1,5.852681147E0
1.158855387E1,-4.300262831E0,2.531485943E0,-6.007943916E-1,5.026095442E0
1.159855388E1,-2.806567619E0,2.264457638E0,-8.480485833E-1,3.704561592E0
1.160855387E1,-1.056331083E0,1.712761731E0,-1.480118562E0,2.498027034E0
1.161855487E1,1.106545801E0,8.578432542E-1,-3.354010261E0,3.634518330E0
1.162855488E1,4.357538647E0,-2.179157871E-1,-5.588072902E0,7.089583141E0
1.163855487E1,8.008681018E0,-1.094823888E0,-3.943782651E0,8.993944218E0
1.164855487E1,1.126443408E1,-1.604333303E0,9.953785372E-1,1.142156465E1
1.165855587E1,1.388583675E1,-1.975836734E0,4.776012762E0,1.481656813E1
1.166855587E1,1.630836159E1,-2.380611407E0,4.839258585E0,1.717697272E1
1.167855587E1,1.820589533E1,-3.013638575E0,1.770253310E0,1.853835050E1
1.168855687E1,1.830913845E1,-3.382575079E0,-1.264467986E0,1.866186604E1
1.169855687E1,1.440525311E1,-1.784456196E0,-3.269075360E0,1.487892653E1
1.170855687E1,6.648509899E0,8.233856124E-1,-2.155462030E0,7.037518335E0
1.171855688E1,1.600732588E0,1.824885600E0,1.186267982E0,2.701811243E0
1.172855787E1,-1.262466484E0,1.866304352E0,2.837305847E0,3.623150290E0
1.173855787E1,-3.061969905E0,1.461551898E0,2.509436678E0,4.220078920E0
1.174855788E1,-3.449716902E0,-2.573178345E-1,1.684547746E0,3.847656466E0
1.175855887E1,-2.968653606E0,-2.874383626E0,9.911766549E-1,4.249401914E0
1.176855888E1,-2.221823834E0,-5.640104935E0,3.737376158E-1,6.073463973E0
1.177855887E1,-1.454923494E0,-8.314696219E0,-7.356545734E-1,8.473025625E0
1.178855887E1,-1.305342363E0,-1.060701292E1,-3.007858018E0,1.110224534E1
1.179855988E1,-2.052755687E0,-1.041312977E1,-3.345576822E0,1.112834048E1
1.180855987E1,-3.187415485E0,-5.436111953E0,-8.212706745E-1,6.354952098E0
1.181855987E1,-4.356486733E0,-2.445995557E-1,5.624862852E-1,4.399454105E0
1.182856088E1,-5.228797753E0,2.530420581E0,1.745312011E-1,5.811524361E0
1.183856087E1,-6.090508355E0,4.170625967E0,-6.382194954E-1,7.409165750E0
1.184856087E1,-7.127995031E0,5.231764045E0,-1.416387420E0,8.954653624E0
1.185856087E1,-7.580118703E0,5.599949182E0,-1.380591935E0,9.524897085E0
1.186856187E1,-7.633172829E0,5.249868194E0,-6.819607615E-1,9.289322579E0
1.187856187E1,-7.151349980E0,3.801761384E0,-3.901016700E-1,8.108475533E0
1.188856188E1,-6.427778678E0,1.143760405E0,-9.178604644E-2,6.529391340E0
1.189856187E1,-5.363754414E0,-2.225708724E0,5.762594748E-1,5.835727523E0
1.190856287E1,-4.097887481E0,-5.278912484E0,1.561042857E0,6.862685599E0
1.191856288E1,-2.980093976E0,-7.291370330E0,2.553131751E0,8.280309362E0
1.192856287E1,-2.540394176E0,-7.085827251E0,3.138722797E0,8.155619609E0
1.193856388E1,-2.994895325E0,-4.247998663E0,2.648371199E0,5.833417580E0
1.194856388E1,-3.424308411E0,-1.301296674E0,1.657734754E0,4.020863793E0
1.195856387E1,-3.415121850E0,3.445846045E-1,6.853404522E-1,3.500212470E0
1.196856387E1,-3.200556225E0,1.190807687E0,-1.629549018E-1,3.418791804E0
1.197856487E1,-2.934376059E0,1.552177894E0,-5.195005524E-1,3.360014865E0
1.198856487E1,-2.629149940E0,1.551408400E0,-4.798388521E-1,3.090233446E0
1.199856487E1,-2.166015961E0,1.226499676E0,-3.948390111E-1,2.520282612E0
1.200856587E1,-1.602872961E0,7.695064437E-1,-2.923947696E-1,1.801898054E0
1.201856587E1,-9.216963109E-1,2.831520027E-1,-3.479685344E-2,9.648367568E-1
1.202856587E1,-2.282826081E-1,-1.477901298E-1,1.116923440E-1,2.939898830E-1
1.203856588E1,3.546885931E-1,-5.460802406E-1,-8.354501724E-2,6.564963040E-1
1.204856687E1,7.535938311E-1,-7.522103798E-1,-3.247042175E-1,1.113174266E0
1.205856687E1,9.693362081E-1,-6.609973240E-1,-3.766881573E-1,1.232243529E0
1.206856688E1,1.043689987E0,-1.912518990E-1,-2.826929963E-1,1.098080784E0
1.207856787E1,1.028333737E0,5.638750720E-1,-2.446029179E-1,1.198021685E0
1.208856788E1,9.340745741E-1,1.462939442E0,-3.013315809E-1,1.761671889E0
1.209856787E1,9.256513676E-1,2.133511582E0,-3.059567285E-1,2.345700672E0
1.210856787E1,1.137158314E0,1.977461675E0,-1.262676984E-1,2.284606583E0
1.211856888E1,1.382156065E0,1.135685985E0,1.438455981E-1,1.794666989E0
1.212856887E1,1.252735548E0,6.931230962E-1,3.167799246E-1,1.466327215E0
1.213856887E1,9.584855300E-1,5.244239080E-1,2.928168654E-1,1.131130701E0
1.214856988E1,6.260113862E-1,3.883708942E-1,1.767437144E-1,7.576018398E-1
1.215856987E1,2.926323858E-1,3.464638996E-1,4.680564567E-2,4.559185403E-1
1.216856987E1,-9.893225759E-2,3.808420193E-1,-5.183805183E-2,3.968821222E-1
1.217856987E1,-4.869967577E-1,4.447760600E-1,-1.094190927E-1,6.685537550E-1
1.218857087E1,-8.575808604E-1,5.184965855E-1,-1.817028111E-1,1.018479039E0
1.219857087E1,-1.176614740E0,5.626272762E-1,-2.604000480E-1,1.329954843E0
1.220857088E1,-1.310136641E0,4.078064543E-1,-2.999954921E-1,1.404550254E0
1.221857087E1,-1.256292702E0,7.689556360E-2,-3.085827130E-1,1.295919585E0
1.222857187E1,-9.927736026E-1,-2.978045404E-1,-2.951779711E-1,1.077690589E0
1.223857188E1,-6.571736835E-1,-5.199244756E-1,-3.500459039E-1,9.081469294E-1
1.224857187E1,-1.258877756E-1,-4.853083742E-1,-5.208844422E-1,7.229747936E-1
1.225857288E1,5.586191560E-1,-3.611380720E-1,-8.194818650E-1,1.055474583E0
1.226857288E1,1.279541962E0,-1.573959357E-1,-1.233132173E0,1.783988808E0
1.227857287E1,1.946251431E0,1.455804670E-1,-1.693986322E0,2.584313828E0
1.228857287E1,2.646548915E0,4.642262381E-1,-1.984242838E0,3.340201610E0
1.229857387E1,3.395728390E0,6.079999155E-1,-1.955562683E0,3.965458436E0
1.230857387E1,4.167388948E0,5.971615165E-1,-1.676527851E0,4.531498445E0
1.231857387E1,4.772378425E0,6.035490149E-1,-1.134050519E0,4.942260396E0
1.232857487E1,5.042097327E0,7.714401180E-1,-4.097681952E-1,5.117203854E0
1.233857487E1,5.100355475E0,1.113390552E0,4.403932795E-2,5.220651679E0
1.234857487E1,5.151665377E0,1.334559145E0,9.893956661E-2,5.322639693E0
1.235857488E1,5.261073214E0,1.154649675E0,3.299759209E-2,5.386389892E0
1.236857587E1,5.362637011E0,5.498762530E-1,2.780584931E-2,5.390826724E0
1.237857588E1,5.164264957E0,-1.398595512E-2,6.582210660E-2,5.164703351E0
1.238857588E1,4.804385206E0,-4.216251791E-1,1.193568742E-1,4.824327006E0
1.239857687E1,4.653218309E0,-9.122925264E-1,1.769841081E-1,4.745107129E0
1.240857750E1,4.740710489E0,-1.397941793E0,2.573844928E-1,4.949224584E0
1.241857750E1,4.940726488E0,-1.768990311E0,3.776044160E-1,5.261434219E0
1.242857750E1,5.123934957E0,-1.795840725E0,5.366691470E-1,5.455984524E0
1.243857850E1,5.111386832E0,-1.252433832E0,6.990575085E-1,5.308817877E0
1.244857850E1,4.929199287E0,-3.694627529E-1,8.305338335E-1,5.012314314E0
1.245857850E1,4.861960692E0,2.217989230E-1,9.421840775E-1,4.957375048E0
1.246857950E1,5.038217699E0,2.445703197E-1,1.018396686E0,5.145928880E0
1.247857950E1,5.166433690E0,-3.320049047E-3,8.779874969E-1,5.240506668E0
1.248857950E1,4.917777336E0,-8.178734422E-2,3.213226265E-1,4.928942211E0
1.249857950E1,4.193674814E0,6.360250354E-2,-1.046754513E0,4.322805655E0
1.250858050E1,3.114827566E0,2.544322336E-1,-2.988089166E0,4.323836652E0
1.251858050E1,1.789723953E0,2.944885844E-1,-7.204604666E0,7.429412073E0
1.252858050E1,4.539038560E-1,-3.794421959E-1,-1.330581635E1,1.331896219E1
1.253858150E1,3.300063264E-1,-1.811927000E0,-6.131537098E0,6.402166104E0
1.254858150E1,4.919335619E-1,-2.668706061E0,-1.280493450E-1,2.716686825E0
1.255858150E1,3.396589100E-2,-3.284487451E0,9.237232482E-1,3.412077980E0
1.256858150E1,-3.541553271E-1,-4.037960830E0,1.101903112E0,4.200564739E0
1.257858250E1,-9.965485650E-1,-4.504178045E0,1.482050482E0,4.845327908E0
1.258858250E1,-2.009404137E0,-4.626632189E0,2.147443743E0,5.482239053E0
1.259858250E1,-2.716445069E0,-4.697606277E0,2.374040891E0,5.923060754E0
1.260858350E1,-2.929255067E0,-4.520687658E0,2.176141731E0,5.809711265E0
1.261858350E1,-3.013531571E0,-3.918479410E0,1.990540874E0,5.328987369E0
1.262858350E1,-2.881813098E0,-3.164763372E0,2.178833789E0,4.802904394E0
1.263858450E1,-2.779555821E0,-2.400888382E0,2.415435669E0,4.395966908E0
1.264858450E1,-2.747432388E0,-1.604487669E0,2.460332930E0,4.021940270E0
1.265858450E1,-2.614327833E0,-9.230695295E-1,2.385280409E0,3.657366539E0
1.266858450E1,-2.283061139E0,-4.262602669E-1,2.040565996E0,3.091597575E0
1.267858550E1,-1.746703064E0,-7.641960025E-2,1.503996106E0,2.306255804E0
1.268858550E1,-1.134301949E0,6.445151925E-2,1.024087197E0,1.529558595E0
1.269858550E1,-6.195692164E-1,1.455962545E-1,7.103688741E-1,9.537757705E-1
1.270858650E1,-2.567518240E-1,3.036184269E-1,4.430167059E-1,5.952893834E-1
1.271858650E1,-1.770525205E-1,5.300243711E-1,1.418546212E-1,5.765380842E-1
1.272858650E1,-4.341230178E-1,8.470165497E-1,-2.665103884E-1,9.883964878E-1
1.273858650E1,-1.315834606E0,9.302206743E-1,-7.949546957E-1,1.796853968E0
1.274858750E1,-2.638275397E0,4.129917651E-1,-7.691542952E-1,2.778967002E0
1.275858750E1,-3.711937627E0,-2.155780703E-1,5.728765681E-2,3.718633717E0
1.276858750E1,-4.520985281E0,-5.205413568E-1,8.257614823E-1,4.625165213E0
1.277858850E1,-5.122288381E0,-5.925837314E-1,1.129076293E0,5.278617907E0
1.278858850E1,-5.510446436E0,-5.223107243E-1,1.147680963E0,5.652875376E0
1.279858850E1,-5.451750916E0,-2.701255757E-1,1.115457031E0,5.571247640E0
1.280858850E1,-5.234153218E0,2.605139226E-1,9.325526170E-1,5.322957993E0
1.281858950E1,-4.952720296E0,8.089798272E-1,6.357678310E-1,5.058466905E0
1.282858950E1,-4.684851746E0,1.273208404E0,4.207984558E-1,4.872983364E0
1.283858950E1,-4.501880089E0,1.606556414E0,3.788095272E-1,4.794939468E0
1.284859050E1,-4.486629966E0,1.712719631E0,4.551766486E-1,4.823944731E0
1.285859050E1,-4.660246662E0,1.629126667E0,5.773002791E-1,4.970435420E0
1.286859050E1,-4.957878125E0,1.507295251E0,7.413695689E-1,5.234703747E0
1.287859050E1,-5.295928466E0,1.477959770E0,8.159192296E-1,5.558502280E0
1.288859150E1,-5.568608691E0,1.600329130E0,9.180853629E-1,5.866288162E0
1.289859150E1,-5.703119794E0,1.942287750E0,9.831297898E-1,6.104473873E0
1.290859150E1,-5.628848460E0,2.342080010E0,7.586353735E-1,6.143679793E0
1.291859250E1,-5.297452835E0,2.599524729E0,3.112660003E-1,5.909096537E0
1.292859250E1,-4.404841452E0,2.515162271E0,-3.577677004E-1,5.084945152E0
1.293859250E1,-2.905408368E0,2.178493627E0,-1.214308816E0,3.829070144E0
1.294859250E1,-1.094590584E0,1.875057049E0,-1.937395384E0,2.909891468E0
1.295859350E1,1.177775998E0,1.284284200E0,-2.640422494E0,3.163601295E0
1.296859350E1,4.253017328E0,2.657465959E-1,-4.369628935E0,6.103477261E0
1.297859350E1,8.553228119E0,-9.736496991E-1,-4.698595626E0,9.807268012E0
1.298859450E1,1.269329829E1,-1.771028066E0,-1.137213278E0,1.286660856E1
1.299859450E1,1.598336866E1,-2.310931308E0,3.909353660E0,1.661600203E1
1.300859450E1,1.873191085E1,-2.651815209E0,5.381397802E0,1.966916497E1
1.301859450E1,2.043989190E1,-2.748163290E0,3.040969046E0,2.084680012E1
1.302859550E1,1.883692685E1,-2.033211368E0,4.719673304E-1,1.895221662E1
1.303859550E1,1.144060484E1,-1.084816378E-1,-8.333364040E-1,1.147142785E1
1.304859550E1,3.689429355E0,1.355765242E0,-5.368352810E-1,3.967137567E0
1.305859650E1,-1.815689099E-1,2.033396725E0,1.793472603E0,2.717390934E0
1.306859650E1,-2.666244383E0,2.318847268E0,2.869399459E0,4.551852922E0
1.307859650E1,-4.213428755E0,2.107972698E0,2.485610443E0,5.326799231E0
1.308859650E1,-4.780264857E0,8.059726042E-1,1.689303871E0,5.133641155E0
1.309859750E1,-4.564293269E0,-1.515201271E0,9.032638407E-1,4.893311098E0
1.310859750E1,-3.866452639E0,-4.263405492E0,-4.958965580E-2,5.755739877E0
1.311859750E1,-2.868021271E0,-7.290729475E0,-1.680248873E0,8.012709814E0
1.312859850E1,-1.198065251E0,-1.007639564E1,-3.115722190E0,1.061493449E1
1.313859850E1,4.260380727E-1,-1.094181045E1,-1.622489492E0,1.106965205E1
1.314859850E1,1.101415454E0,-9.048318885E0,1.795493985E0,9.290263145E0
1.315859950E1,3.107040828E-1,-4.584923415E0,3.227962418E0,5.615852662E0
1.316859950E1,-1.804843683E0,1.231897241E-1,1.775708762E0,2.534911840E0
1.317859950E1,-3.974897439E0,3.150033651E0,-1.170930662E0,5.205151321E0
1.318859950E1,-5.755543590E0,4.648343486E0,-3.576106807E0,8.217172207E0
1.319860050E1,-7.151122524E0,5.437036398E0,-4.177446159E0,9.907117368E0
1.320860050E1,-8.294524494E0,6.016416532E0,-3.156323501E0,1.072188335E1
1.321860050E1,-8.432113572E0,6.102063623E0,-1.561588402E0,1.052493601E1
1.322860150E1,-7.650019242E0,5.244539627E0,-5.511029989E-1,9.291485609E0
1.323860150E1,-6.737303377E0,3.435094770E0,-9.954592288E-2,7.563137065E0
1.324860150E1,-5.851694035E0,6.070304471E-1,4.471518202E-1,5.900063880E0
1.325860150E1,-4.337846102E0,-2.935750154E0,1.198955197E0,5.373363131E0
1.326860250E1,-2.433591566E0,-6.282871225E0,2.420956026E0,7.159459954E0
1.327860250E1,-7.890706426E-1,-8.343287934E0,3.638632253E0,9.136341210E0
1.328860250E1,-4.083607703E-2,-8.142760597E0,4.193777432E0,9.159366074E0
1.329860350E1,-7.445113510E-1,-4.923659050E0,3.562568164E0,6.122794094E0
1.330860350E1,-1.704187082E0,-1.281774575E0,1.942336282E0,2.884418469E0
1.331860350E1,-2.079400864E0,1.571771328E0,-5.919300127E-1,2.672967303E0
1.332860350E1,-2.311818330E0,3.183801321E0,-8.141990519E-1,4.017961541E0
1.333860450E1,-2.284121239E0,3.421134542E0,4.903065741E-1,4.142676904E0
1.334860450E1,-1.736473945E0,2.980003052E0,6.455150664E-1,3.508910037E0
1.335860450E1,-5.791120389E-1,1.708265807E0,5.300781655E-1,1.880033426E0
1.336860550E1,5.348676199E-1,3.910424870E-1,4.154025722E-1,7.820210319E-1
1.337860550E1,1.192393452E0,-4.448064655E-1,1.633390456E-1,1.283095702E0
1.338860550E1,1.400470422E0,-8.236148232E-1,-4.591269179E-1,1.688329442E0
1.339860650E1,1.245599314E0,-8.152854645E-1,-1.284291801E0,1.966116342E0
1.340860708E1,8.280794647E-1,-4.004196668E-1,-1.335071361E0,1.621254776E0
1.341860708E1,3.395004505E-1,2.583065987E-1,-3.820944929E-1,5.726945576E-1
1.342860708E1,-7.646462381E-2,9.765043098E-1,2.877642864E-1,1.020889705E0
1.343860808E1,-4.238643703E-1,1.595006994E0,4.494801450E-1,1.710479674E0
1.344860808E1,-5.957283640E-1,1.951246853E0,4.256819042E-1,2.084097323E0
1.345860808E1,-6.032668868E-1,1.948198700E0,3.833059629E-1,2.075170492E0
1.346860908E1,-3.758470353E-1,1.469630996E0,3.737937856E-1,1.562305365E0
1.347860908E1,-1.029487100E-1,7.912352818E-1,3.483127161E-1,8.706167103E-1
1.348860908E1,1.152880892E-1,1.751942754E-1,2.547444749E-1,3.299683699E-1
1.349860908E1,3.188051078E-1,-2.099676669E-1,1.650143460E-1,4.158760059E-1
1.350861008E1,4.194625863E-1,-2.272666544E-1,8.948637307E-2,4.853934533E-1
1.351861008E1,4.358037999E-1,8.235861719E-2,-1.929223023E-2,4.439370271E-1
1.352861008E1,3.033096939E-1,5.300658864E-1,-1.729108646E-1,6.347163000E-1
1.353861108E1,1.528590810E-1,8.630379206E-1,-3.123231038E-1,9.304547663E-1
1.354861108E1,1.535771191E-3,9.302920103E-1,-3.831737427E-1,1.006115153E0
1.355861108E1,-1.234294599E-1,7.845039672E-1,-4.029456639E-1,8.905315908E-1
1.356861208E1,-1.411921316E-1,5.258991605E-1,-3.831399751E-1,6.658088206E-1
1.357861208E1,-1.660468912E-1,2.880899763E-1,-3.223569989E-1,4.631214088E-1
1.358861208E1,-2.140529703E-1,1.815648168E-1,-3.020777587E-1,4.123535244E-1
1.359861208E1,-1.463980539E-1,1.072730184E-1,-3.297184972E-1,3.763697359E-1
1.360861308E1,-2.645426542E-2,3.008801758E-2,-4.254983747E-1,4.273803737E-1
1.361861308E1,2.591196540E-1,-7.181024015E-2,-5.491851121E-1,6.114768949E-1
1.362861308E1,7.325051169E-1,-1.992052817E-1,-7.884836552E-1,1.094510377E0
1.363861408E1,1.405484117E0,-2.511519456E-1,-1.152342948E0,1.834763520E0
1.364861408E1,2.165510762E0,-1.015819234E-1,-1.493332100E0,2.632450666E0
1.365861408E1,2.957588335E0,1.548939121E-1,-1.667107987E0,3.398612941E0
1.366861408E1,3.770464162E0,3.914436060E-1,-1.612096066E0,4.119281712E0
1.367861508E1,4.453756335E0,6.122870940E-1,-1.282461623E0,4.674991849E0
1.368861508E1,4.997834489E0,7.812213403E-1,-7.116296069E-1,5.108333687E0
1.369861508E1,5.395646297E0,8.244188154E-1,-1.689525189E-1,5.460879993E0
1.370861608E1,5.741230191E0,6.367477512E-1,1.405356355E-1,5.778141749E0
1.371861608E1,6.056332549E0,2.175497514E-1,2.590551154E-1,6.065772943E0
1.372861608E1,6.314407598E0,-4.005792958E-1,3.228136665E-1,6.335330753E0
1.373861708E1,6.458225715E0,-1.077443039E0,4.552853338E-1,6.563295485E0
1.374861708E1,6.477584676E0,-1.539270165E0,6.420353884E-1,6.688846337E0
1.375861708E1,6.497017897E0,-1.689657628E0,7.407989538E-1,6.753885367E0
1.376861708E1,6.520928916E0,-1.552414706E0,7.440967834E-1,6.744344696E0
1.377861808E1,6.398886416E0,-1.019041634E0,7.159816164E-1,6.518958728E0
1.378861808E1,6.062058728E0,-8.173588872E-2,7.490043515E-1,6.108702341E0
1.379861808E1,5.674426922E0,7.680855703E-1,8.854052746E-1,5.794222884E0
1.380861908E1,5.284131709E0,1.220170065E0,9.577464420E-1,5.507099159E0
1.381861908E1,4.856290355E0,1.002894548E0,6.377815390E-1,4.999611862E0
1.382861908E1,4.217793117E0,1.458874458E-1,-4.625779080E-1,4.245590682E0
1.383862008E1,3.003657378E0,-5.967732614E-1,-2.550839642E0,3.985583878E0
1.384862008E1,1.187077602E0,-9.954253149E-1,-6.936134437E0,7.107037760E0
1.385862008E1,-3.631384045E-1,-1.809208045E0,-1.064864275E1,1.080734453E1
1.386862008E1,-2.557598439E-1,-2.844831213E0,-3.778995835E0,4.737012481E0
1.387862108E1,-1.354264846E-1,-3.542904562E0,1.138470429E0,3.723792152E0
1.388862108E1,-3.041297659E-1,-4.173198157E0,2.221701043E0,4.737513408E0
1.389862108E1,-6.796060878E-1,-4.649297166E0,2.432237059E0,5.290898382E0
1.390862208E1,-1.620087164E0,-4.909140998E0,2.358238206E0,5.682044983E0
1.391862208E1,-2.642199463E0,-5.188896353E0,2.054137676E0,6.174572452E0
1.392862208E1,-3.303837057E0,-5.321777837E0,1.712497437E0,6.493789812E0
1.393862308E1,-3.647128842E0,-4.912611321E0,1.371429348E0,6.270256553E0
1.394862308E1,-4.051874572E0,-3.960358922E0,1.647761889E0,5.900614340E0
1.395862308E1,-4.373231989E0,-2.544795960E0,2.133342890E0,5.491110670E0
1.396862308E1,-4.332658160E0,-1.155096987E0,2.550185924E0,5.158451708E0
1.397862408E1,-4.100189238E0,-1.543951446E-1,2.547141863E0,4.829422462E0
1.398862408E1,-3.480943080E0,2.968011582E-1,2.526485989E0,4.311401988E0
1.399862408E1,-2.706781960E0,4.181086636E-1,2.574847140E0,3.759164964E0
1.400862508E1,-1.846206887E0,4.420576894E-1,2.506735264E0,3.144458070E0
1.401862508E1,-1.001188915E0,4.677866077E-1,2.246511948E0,2.503601304E0
1.402862508E1,-9.352855325E-2,6.078063726E-1,1.488643656E0,1.610663252E0
1.403862508E1,9.568032861E-1,8.829237163E-1,2.526042478E-1,1.326211040E0
1.404862608E1,1.820147601E0,1.424172987E0,-1.213409514E0,2.610281333E0
1.405862608E1,2.200473311E0,2.051651732E0,-1.714982504E0,3.463022179E0
1.406862608E1,1.685527740E0,2.407671736E0,-1.007816661E0,3.107021302E0
1.407862708E1,9.020908892E-2,1.951632770E0,9.772795044E-2,1.956159221E0
1.408862708E1,-1.976239023E0,1.034722697E0,8.739014626E-1,2.395803728E0
1.409862708E1,-3.515590464E0,3.065490514E-1,1.066655000E0,3.686611116E0
1.410862808E1,-4.473868418E0,-3.746913332E-1,1.322864714E0,4.680369992E0
1.411862808E1,-5.014089164E0,-8.976920289E-1,1.610819035E0,5.342441303E0
1.412862808E1,-5.259018502E0,-1.049831318E0,1.471058886E0,5.560884430E0
1.413862808E1,-5.408692020E0,-6.275109047E-1,9.357181533E-1,5.524788482E0
1.414862908E1,-5.291000433E0,1.542910641E-1,4.368828305E-1,5.311248245E0
1.415862908E1,-4.969405326E0,9.315456533E-1,7.920060910E-2,5.056583762E0
1.416862908E1,-4.751349206E0,1.461274155E0,-5.428079925E-2,4.971276279E0
1.417863008E1,-4.669678806E0,1.665598674E0,-2.475243330E-2,4.957895902E0
1.418863008E1,-4.785967646E0,1.634979145E0,1.850152222E-1,5.060916295E0
1.419863008E1,-5.056742263E0,1.469065570E0,5.719629407E-1,5.296785588E0
1.420863108E1,-5.356810845E0,1.363067830E0,8.467528403E-1,5.591991301E0
1.421863108E1,-5.559323897E0,1.406680457E0,8.780576634E-1,5.801363405E0
1.422863108E1,-5.525228782E0,1.647543057E0,7.986945748E-1,5.820692763E0
1.423863108E1,-5.261021758E0,1.913604233E0,7.274380660E-1,5.645298685E0
1.424863208E1,-4.756251512E0,2.004663507E0,6.344989121E-1,5.200307019E0
1.425863208E1,-3.988774052E0,1.907334264E0,4.070211732E-1,4.440034759E0
1.426863208E1,-2.887726972E0,1.698238417E0,-1.458342087E-1,3.353244459E0
1.427863308E1,-1.431833425E0,1.439623670E0,-7.029195213E-1,2.148664497E0
1.428863308E1,3.749977273E-1,1.014676103E0,-1.586681728E0,1.920351477E0
1.429863308E1,2.750194028E0,1.728401864E-1,-3.797585303E0,4.692024622E0
1.430863408E1,6.381575734E0,-7.553076500E-1,-6.218783988E0,8.942498129E0
1.431863408E1,1.049821377E1,-1.353104759E0,-4.971113298E0,1.169424441E1
1.432863408E1,1.366621767E1,-1.549718555E0,3.345455199E-1,1.375787243E1
1.433863408E1,1.556830289E1,-1.536372870E0,4.819031897E0,1.636934834E1
1.434863508E1,1.713320023E1,-1.412398449E0,4.341004475E0,1.773092607E1
1.435863508E1,1.831535989E1,-1.550209721E0,1.291881487E0,1.842619103E1
1.436863508E1,1.607092136E1,-1.249499699E0,-7.347160953E-1,1.613615725E1
1.437863608E1,7.824717674E0,3.220646381E-2,-1.832301623E0,8.036452773E0
1.438863608E1,1.955283186E0,1.288403563E0,1.205683442E-1,2.344707403E0
1.439863608E1,-1.190335817E0,2.042623047E0,2.298021825E0,3.296985377E0
1.440863646E1,-3.369704772E0,2.223564550E0,2.474924657E0,4.735441016E0
1.441863646E1,-4.295174584E0,1.270846714E0,1.793469679E0,4.824946587E0
1.442863646E1,-4.067038448E0,-1.155349587E0,1.088984858E0,4.365950347E0
1.443863646E1,-3.261809025E0,-4.503102742E0,2.767850061E-1,5.567220344E0
1.444863746E1,-2.200187382E0,-8.192310487E0,-6.463067794E-1,8.507202130E0
1.445863746E1,-5.665150899E-1,-1.176254201E1,-1.559202154E0,1.187894967E1
1.446863746E1,1.255725229E0,-1.405346239E1,-1.546293840E0,1.419393095E1
1.447863846E1,1.601763452E0,-1.180729075E1,-3.532168490E-1,1.192067629E1
1.448863846E1,-4.032245761E-1,-4.756616963E0,8.135862637E-1,4.842511497E0
1.449863846E1,-3.363022574E0,6.893528116E-1,9.586206007E-1,3.564278551E0
1.450863946E1,-5.559623859E0,3.588021678E0,-1.280040291E0,6.739571215E0
1.451863946E1,-7.060925129E0,5.287669859E0,-3.612855973E0,9.532515119E0
1.452863946E1,-8.039525081E0,6.300038066E0,-3.345821235E0,1.074797483E1
1.453864046E1,-8.434584605E0,6.804190847E0,-1.274998237E0,1.091168415E1
1.454864046E1,-8.235242499E0,6.541881244E0,-4.577750416E-1,1.052734474E1
1.455864046E1,-8.263136056E0,5.431621292E0,-2.332326050E-1,9.891224635E0
1.456864046E1,-8.119037274E0,3.125839042E0,-3.114110112E-2,8.700034812E0
1.457864146E1,-6.987584088E0,-2.693981820E-1,3.054947984E-1,6.999445252E0
1.458864146E1,-5.372185514E0,-4.142470454E0,1.194124228E0,6.888132645E0
1.459864146E1,-3.798946534E0,-7.848640972E0,2.262611672E0,9.008472204E0
1.460864246E1,-2.635478089E0,-1.037598943E1,3.199233878E0,1.117327162E1
1.461864246E1,-2.227393307E0,-9.935640292E0,4.002610903E0,1.094070944E1
1.462864246E1,-3.184338096E0,-5.350114614E0,3.463509314E0,7.124579444E0
1.463864346E1,-4.049078726E0,-1.158892999E0,2.397967697E0,4.846475068E0
1.464864346E1,-4.395487369E0,1.163149772E0,1.612348666E0,4.824198879E0
1.465864346E1,-4.159168348E0,2.349249866E0,6.004014222E-1,4.814367886E0
1.466864346E1,-3.739162847E0,2.987920766E0,-2.991657539E-1,4.795676121E0
1.467864446E1,-2.820714665E0,2.399930023E0,-1.988076528E-1,3.708856942E0
1.468864446E1,-1.233772735E0,7.503129584E-1,7.271012664E-1,1.616737749E0
1.469864446E1,1.537411335E-1,-2.920011789E-1,1.338966776E0,1.379033376E0
1.470864546E1,1.060350166E0,-5.408592618E-1,1.307532145E0,1.768194425E0
1.471864546E1,1.478303586E0,-3.070261842E-1,7.467771471E-1,1.684435418E0
1.472864546E1,1.616289105E0,-3.434888363E-2,-5.036418072E-1,1.693288335E0
1.473864646E1,1.739439068E0,1.542121267E-1,-2.679464353E0,3.198274358E0
1.474864646E1,1.691819636E0,4.385487753E-1,-4.035237197E0,4.397467219E0
1.475864646E1,1.323563748E0,7.791964495E-1,-2.598841774E0,3.018765753E0
1.476864646E1,8.754860580E-1,1.316078435E0,-5.731826699E-1,1.681391287E0
1.477864746E1,5.715667918E-1,1.756781325E0,6.305484601E-1,1.952065721E0
1.478864746E1,5.705408978E-1,1.229961812E0,8.425427719E-1,1.596308648E0
1.479864746E1,4.595867649E-1,7.931853282E-1,4.477084386E-1,1.020198905E0
1.480864846E1,1.762649006E-1,7.710758364E-1,3.503324175E-1,8.650780678E-1
1.481864846E1,1.467504948E-2,8.366038281E-1,6.754667708E-1,1.075349562E0
1.482864846E1,-8.396075428E-2,8.626636988E-1,7.258324206E-1,1.130517920E0
1.483864946E1,-1.293930352E-1,7.727493095E-1,5.188485879E-1,9.397275723E-1
1.484864946E1,-1.562785327E-1,5.503633261E-1,4.407022317E-1,7.221781135E-1
1.485864946E1,-1.856593296E-1,3.406061590E-1,4.087051713E-1,5.634907801E-1
1.486865046E1,-2.436442669E-1,1.949490935E-1,2.473921128E-1,3.982091603E-1
1.487865046E1,-3.136455247E-1,1.687021118E-1,-3.767361045E-2,3.581245853E-1
1.488865046E1,-2.026837903E-1,2.554671907E-1,-3.454252879E-1,4.750398235E-1
1.489865046E1,2.902838516E-1,4.161112547E-1,-6.106563056E-1,7.939234310E-1
1.490865146E1,1.084988871E0,5.496441185E-1,-7.564250529E-1,1.432301773E0
1.491865146E1,1.930956869E0,5.414334583E-1,-9.047643093E-1,2.200077970E0
1.492865146E1,2.755316189E0,3.448418820E-1,-1.140651441E0,3.001960848E0
1.493865246E1,3.529438717E0,6.189336240E-2,-1.253399499E0,3.745901594E0
1.494865246E1,4.197902058E0,-1.728214753E-1,-1.056808362E0,4.332331112E0
1.495865246E1,4.667786062E0,-2.422361112E-1,-6.850470681E-1,4.724001963E0
1.496865346E1,4.926389115E0,-7.151963353E-2,-2.974425977E-1,4.935878531E0
1.497865346E1,5.106817818E0,1.995011508E-1,1.512857415E-2,5.110735545E0
1.498865346E1,5.284596562E0,5.163208365E-1,2.629481184E-1,5.316266523E0
1.499865446E1,5.450882605E0,8.106930614E-1,4.747108074E-1,5.531247125E0
1.500865446E1,5.688572506E0,9.346610498E-1,6.835979819E-1,5.805235106E0
1.501865446E1,5.988807149E0,9.021055073E-1,8.804421580E-1,6.120031357E0
1.502865446E1,6.259205205E0,7.939425427E-1,1.034948327E0,6.393677549E0
1.503865546E1,6.479565713E0,6.098768717E-1,1.217268677E0,6.621062200E0
1.504865546E1,6.701204422E0,3.065315098E-1,1.427898248E0,6.858498063E0
1.505865546E1,6.909674617E0,-2.332395852E-2,1.533067439E0,7.077742796E0
1.506865646E1,6.999666774E0,-1.403320062E-1,1.530979983E0,7.166514336E0
1.507865646E1,6.907810525E0,8.329826474E-2,1.384064012E0,7.045595648E0
1.508865646E1,6.623301968E0,5.005105501E-1,1.127202845E0,6.737152664E0
1.509865746E1,6.337663144E0,7.715003443E-1,8.078595006E-1,6.435357324E0
1.510865746E1,6.035037575E0,6.562873918E-1,4.326074195E-1,6.086011900E0
1.511865746E1,5.569765270E0,3.166197109E-1,-1.447933952E-1,5.580636015E0
1.512865846E1,4.722877944E0,-1.114876914E-1,-1.388786223E0,4.924097151E0
1.513865846E1,3.576347712E0,-7.526173460E-1,-3.668395751E0,5.178206563E0
1.514865846E1,2.440364396E0,-1.550196272E0,-4.548195884E0,5.389301687E0
1.515865846E1,1.652298013E0,-2.458921412E0,-1.695858600E0,3.413549418E0
1.516865946E1,1.007417077E0,-3.187018459E0,1.593139393E0,3.702711028E0
1.517865946E1,3.908632699E-1,-3.476877803E0,2.937454033E0,4.568379313E0
1.518865946E1,-2.015351048E-1,-3.553431889E0,3.218831406E0,4.798788411E0
1.519866046E1,-7.808380553E-1,-3.625704644E0,3.265208012E0,4.941358679E0
1.520866046E1,-1.435330060E0,-3.808507901E0,3.414197406E0,5.312405175E0
1.521866046E1,-2.375304767E0,-3.976980218E0,3.785631255E0,5.982428302E0
1.522866146E1,-3.073883023E0,-4.059263991E0,4.129108397E0,6.555601966E0
1.523866146E1,-2.935539947E0,-4.057392882E0,4.359167097E0,6.639440455E0
1.524866146E1,-2.677335674E0,-3.716417179E0,4.716408876E0,6.574526268E0
1.525866246E1,-2.409281767E0,-3.198738034E0,5.275009468E0,6.622861053E0
1.526866246E1,-2.167628331E0,-2.519084584E0,5.783415513E0,6.670254472E0
1.527866246E1,-1.979258525E0,-1.824144173E0,5.789410079E0,6.384530940E0
1.528866246E1,-1.803429242E0,-1.302851449E0,5.210597709E0,5.665695669E0
1.529866346E1,-1.585217001E0,-8.011942595E-1,4.490066082E0,4.828614564E0
1.530866346E1,-1.320258902E0,-3.248221850E-1,3.756108663E0,3.994614538E0
1.531866346E1,-1.014316207E0,2.070364577E-1,2.332165471E0,2.551606797E0
1.532866446E1,-6.962955031E-1,6.328055584E-1,8.150743800E-1,1.244835952E0
1.533866446E1,-6.872168237E-1,7.737141001E-1,1.152722871E0,1.549086986E0
1.534866446E1,-1.079166214E0,6.728975773E-1,2.856544648E0,3.126857559E0
1.535866546E1,-1.960605322E0,6.036045635E-1,3.916449549E0,4.421186353E0
1.536866546E1,-3.139144381E0,5.806098032E-1,3.945635341E0,5.075369291E0
1.537866546E1,-4.172828613E0,2.511396664E-1,3.057485676E0,5.179168700E0
1.538866646E1,-4.793353849E0,-3.720899069E-1,2.182683888E0,5.280037971E0
1.539866646E1,-4.972103232E0,-9.194968808E-1,2.211401903E0,5.518838957E0
1.540866571E1,-4.838100252E0,-1.081409791E0,2.348316797E0,5.485549467E0
1.541866571E1,-4.365154061E0,-8.343883181E-1,1.577784897E0,4.715949429E0
1.542866671E1,-3.569018227E0,-4.890505922E-1,9.517651789E-2,3.603625974E0
1.543866671E1,-2.827092515E0,-2.703185338E-1,-7.584060895E-1,2.939507441E0
1.544866671E1,-2.579947667E0,-1.956881815E-1,-1.760280883E-1,2.593339491E0
1.545866771E1,-3.043840613E0,-4.368519133E-1,1.006528008E0,3.235568560E0
1.546866771E1,-4.041796018E0,-8.952800524E-1,1.897807395E0,4.554043735E0
1.547866771E1,-4.948748283E0,-1.112869565E0,2.296407409E0,5.567950720E0
1.548866871E1,-5.498669559E0,-1.050579177E0,2.400034103E0,6.090915139E0
1.549866871E1,-5.773144879E0,-8.538449281E-1,2.389785104E0,6.306292555E0
1.550866871E1,-5.823012857E0,-4.391662413E-1,2.097607924E0,6.204861379E0
1.551866971E1,-5.659099615E0,7.008063376E-2,1.416366370E0,5.834073486E0
1.552866971E1,-5.081573049E0,5.623699987E-1,4.641414535E-1,5.133621719E0
1.553866971E1,-3.999853941E0,9.434248567E-1,-5.164436281E-1,4.141931437E0
1.554866971E1,-2.811552955E0,1.127832590E0,-1.323076383E0,3.305656891E0
1.555867071E1,-1.746529986E0,1.231151136E0,-1.850095285E0,2.826473541E0
1.556867071E1,-6.530158746E-1,1.162913545E0,-2.154482621E0,2.533888910E0
1.557867071E1,4.244745272E-1,1.024705247E0,-2.916038021E0,3.119852113E0
1.558867171E1,1.772760011E0,8.018959254E-1,-4.107934459E0,4.545419745E0
1.559867171E1,3.632602020E0,2.433991224E-1,-4.688682257E0,5.936226232E0
1.560867171E1,6.050995796E0,-6.925798899E-1,-4.859809209E0,7.791788150E0
1.561867271E1,8.802183850E0,-1.474286549E0,-4.428761827E0,9.963227022E0
1.562867271E1,1.082037197E1,-1.465779435E0,-1.264900095E0,1.099222139E1
1.563867271E1,1.121513504E1,-7.540165848E-1,4.660490491E0,1.216831815E1
1.564867371E1,9.797720262E0,-2.232309061E-1,1.008109212E1,1.405964341E1
1.565867371E1,7.724209884E0,-1.181722283E-1,1.049970715E1,1.303538390E1
1.566867371E1,5.567885390E0,2.201897693E-1,6.681345524E0,8.700012026E0
1.567867371E1,3.969470639E0,1.081851840E0,2.354978968E0,4.740572380E0
1.568867471E1,1.914895298E0,2.528888025E0,-4.912491453E-1,3.209894760E0
1.569867471E1,-6.660972655E-2,3.350378555E0,2.179760134E-1,3.358122520E0
1.570867471E1,-1.488260810E0,2.663529521E0,1.415035543E0,3.363277470E0
1.571867571E1,-2.175075930E0,3.676091856E-1,1.394011295E0,2.609474910E0
1.572867571E1,-1.753480572E0,-2.652704571E0,2.930682957E-1,3.193340677E0
1.573867571E1,-9.161657220E-1,-6.068418744E0,-1.779272640E0,6.389904288E0
1.574867671E1,3.653135687E-1,-9.516900129E0,-2.863879688E0,9.945182197E0
1.575867671E1,2.579547132E0,-1.254579409E1,-1.761425768E0,1.292879088E1
1.576867671E1,4.785238498E0,-1.421156877E1,1.958629548E0,1.512294363E1
1.577867771E1,4.818182881E0,-1.134541100E1,4.857368581E0,1.324867037E1
1.578867771E1,1.258492132E0,-2.710628259E0,3.077348667E0,4.289683301E0
1.579867771E1,-2.702097171E0,2.975082035E0,-1.760830156E-1,4.022865579E0
1.580867871E1,-5.433009421E0,5.410308775E0,-2.527836696E0,8.073350653E0
1.581867871E1,-7.600593898E0,6.860270323E0,-3.991854950E0,1.098941502E1
1.582867871E1,-8.416047177E0,7.285863422E0,-2.310981594E0,1.136900575E1
1.583867871E1,-8.502751445E0,7.413537376E0,-8.983328837E-1,1.131655073E1
1.584867971E1,-7.946870686E0,6.699649063E0,-8.621508980E-1,1.042983008E1
1.585867971E1,-7.622491720E0,5.312033452E0,-4.608991724E-1,9.302285067E0
1.586867971E1,-7.356274424E0,3.151055744E0,1.058264172E-1,8.003444567E0
1.587868071E1,-6.900205636E0,1.984796423E-1,8.172524679E-1,6.951268487E0
1.588868071E1,-5.485112790E0,-3.243572729E0,1.745260556E0,6.607053865E0
1.589868071E1,-3.520430789E0,-6.536681900E0,2.732634255E0,7.911316779E0
1.590868171E1,-2.280750904E0,-8.969755695E0,3.287682370E0,9.821771596E0
1.591868171E1,-1.692921836E0,-9.674404823E0,3.219382213E0,1.033559456E1
1.592868171E1,-1.993337743E0,-6.957488469E0,2.730271980E0,7.735271568E0
1.593868271E1,-2.764829024E0,-2.571197308E0,2.132699404E0,4.336328156E0
1.594868271E1,-3.396022505E0,6.686928445E-1,1.605832529E0,3.815601799E0
1.595868271E1,-3.670286740E0,2.727409183E0,1.159796467E0,4.717509242E0
1.596868371E1,-3.602487690E0,3.858263029E0,7.579324651E-1,5.332782836E0
1.597868371E1,-2.845491656E0,3.723588204E0,1.088553846E0,4.811120592E0
1.598868371E1,-1.174818183E0,2.263367132E0,1.970935013E0,3.222982061E0
1.599868371E1,3.370764872E-1,6.924588525E-1,2.486085237E0,2.602640895E0
1.600868471E1,1.334876941E0,-3.156935120E-1,2.491558231E0,2.844190792E0
1.601868471E1,1.880819480E0,-7.348581827E-1,2.102935907E0,2.915448146E0
1.602868471E1,2.044496495E0,-6.930435741E-1,1.388088065E0,2.566527574E0
1.603868571E1,2.156758942E0,-5.231264108E-1,2.605203545E-1,2.234533784E0
1.604868571E1,2.103260719E0,2.055881023E-2,-1.207236024E0,2.425190124E0
1.605868571E1,1.657325157E0,7.199360883E-1,-1.902938327E0,2.624158708E0
1.606868671E1,9.040856668E-1,6.736319876E-1,-2.113901775E0,2.395773708E0
1.607868671E1,5.819002837E-2,5.504633135E-1,-2.535148054E0,2.594874100E0
1.608868671E1,-8.905312362E-1,6.268642026E-1,-2.492369240E0,2.719909748E0
1.609868771E1,-1.523535600E0,5.572121698E-1,-1.720734410E0,2.364862160E0
1.610868771E1,-1.735548623E0,3.818945181E-1,-7.916427597E-1,1.945423014E0
1.611868771E1,-1.644670905E0,1.772098106E-1,-1.776547837E-1,1.663702775E0
1.612868871E1,-1.450202453E0,4.447743058E-2,1.467874054E-1,1.458290759E0
1.613868871E1,-1.251531022E0,8.122718096E-2,4.509653012E-1,1.332778097E0
1.614868871E1,-1.106683503E0,2.831403083E-1,7.949576193E-1,1.391716360E0
1.615868971E1,-9.186795862E-1,3.250157279E-1,9.965041262E-1,1.393781862E0
1.616868971E1,-8.454937886E-1,3.216763830E-1,1.027045961E0,1.368633935E0
1.617868971E1,-8.710471442E-1,3.623958081E-1,9.891576844E-1,1.366926031E0
1.618868971E1,-8.880246811E-1,3.456131297E-1,9.554174229E-1,1.349391982E0
1.619869071E1,-8.676293005E-1,2.605741489E-1,9.354001379E-1,1.302172380E0
1.620869071E1,-7.551645394E-1,1.157865644E-2,8.804170880E-1,1.159974912E0
1.621869071E1,-5.189088142E-1,-2.897365522E-1,6.771028948E-1,9.009339361E-1
1.622869171E1,-9.681892768E-2,-6.130905014E-1,2.677896861E-1,6.759919997E-1
1.623869171E1,5.350073683E-1,-7.533388925E-1,-2.873473799E-1,9.676367541E-1
1.624869171E1,1.303278588E0,-5.046486247E-1,-9.368958557E-1,1.682551383E0
1.625869271E1,2.140161474E0,7.483792841E-2,-1.716126804E0,2.744263664E0
1.626869271E1,3.140434277E0,6.267811722E-1,-2.567737511E0,4.104687322E0
1.627869271E1,4.272214322E0,1.003680414E0,-3.028010446E0,5.331794900E0
1.628869371E1,5.170161290E0,1.175950497E0,-2.221585268E0,5.748814524E0
1.629869371E1,5.654617724E0,1.308006354E0,-3.896899530E-1,5.816995830E0
1.630869371E1,5.977102193E0,1.327999738E0,9.445188707E-1,6.195276412E0
1.631869471E1,6.411182526E0,1.130980146E0,1.519995403E0,6.685264654E0
1.632869471E1,6.896634157E0,7.021693236E-1,1.640774320E0,7.123815328E0
1.633869471E1,7.349303373E0,5.760092139E-2,1.528843410E0,7.506859537E0
1.634869571E1,7.622150243E0,-6.705189300E-1,1.394783712E0,7.777672632E0
1.635869571E1,7.676396032E0,-1.257292283E0,1.315876706E0,7.889193332E0
1.636869571E1,7.578096735E0,-1.572424462E0,1.288746795E0,7.846077818E0
1.637869671E1,7.269208213E0,-1.430660473E0,1.292038193E0,7.520474727E0
1.638869671E1,6.766615469E0,-9.058214128E-1,1.366075637E0,6.962309961E0
1.639869671E1,6.159775057E0,-8.088394940E-2,1.526769987E0,6.346683981E0
1.640869712E1,5.660349750E0,7.088304716E-1,1.742359167E0,5.964714192E0
1.641869812E1,5.303354430E0,1.173392340E0,1.989551378E0,5.784525260E0
1.642869812E1,4.980945976E0,1.306605361E0,2.149265735E0,5.579998529E0
1.643869812E1,4.626033434E0,9.752799028E-1,2.145704781E0,5.191859516E0
1.644869912E1,4.031108478E0,3.517503673E-1,1.827411597E0,4.439932097E0
1.645869912E1,3.117326666E0,-1.927897167E-1,7.483944869E-1,3.211695459E0
1.646869913E1,1.990444248E0,-9.207440919E-1,-1.307679495E0,2.553363204E0
1.647870012E1,5.483676714E-1,-1.639251705E0,-3.720716636E0,4.102631539E0
1.648870012E1,-1.043117545E0,-2.257987109E0,-6.747383977E0,7.191230113E0
